ax,ay,az,gx,gy,gz,id
0.398405,2.6668,9.86799,-36.8136,-8.74018,0.593471,3
0.281156,2.85105,9.96251,-63.3347,-13.0452,-0.535276,3
0.349352,3.4002,10.0558,-104.731,-19.9751,-1.68152,3
0.76331,2.0985,9.99003,-249.596,-34.2988,-2.09277,3
1.02652,0.344566,9.72084,-277.823,-35.7601,-0.657775,3
1.15095,-1.41057,9.59401,-286.301,-35.7514,0.339722,3
1.19162,-2.55793,9.56052,-278.523,-35.4451,0.77722,3
1.25025,-3.37388,9.47557,-255.598,-33.2576,1.08347,3
1.24187,-3.73519,9.4337,-224.177,-30.2126,1.87097,3
1.24068,-3.95892,9.38584,-190.017,-26.9489,2.43096,3
1.19282,-4.17069,9.32124,-153.328,-23.4401,2.51847,3
1.13898,-4.32502,9.20399,-116.272,-19.5726,2.58847,3
1.19402,-4.59661,9.05683,-79.7672,-14.9177,2.45722,3
1.45005,-6.46421,8.4012,48.4375,5.03228,2.27347,3
1.45962,-7.52423,8.14636,120.563,14.5873,3.27971,3
1.51346,-6.83031,8.32821,188.98,18.481,2.88596,3
1.48116,-6.38883,8.40479,256.801,23.8447,1.63472,3
1.49551,-5.32163,8.33539,284.783,28.9635,1.14472,3
1.54457,-2.67996,8.64885,285.203,31.011,-1.43652,3
1.37587,-0.0143569,9.32841,285.203,32.4984,-4.09651,3
1.28614,2.21575,10.0702,285.203,31.746,-6.74776,3
1.14736,3.94935,10.7904,284.748,29.0685,-9.68774,3
0.859023,3.85842,10.7593,262.969,27.5022,-9.97649,3
0.445065,3.57607,9.4684,105.304,11.236,-6.56401,3
0.448654,3.32602,9.0652,76.3411,5.95103,-6.72151,3
0.442672,3.35474,8.82233,56.5224,1.69854,-6.97526,3
0.471386,3.68255,8.77687,39.4425,-1.3902,-7.07151,3
0.484546,4.40997,8.80319,15.6775,-4.02394,-7.20275,3
0.537188,5.16132,8.79242,-17.2924,-6.43018,-6.83526,3
0.622133,5.69611,8.66441,-57.7348,-8.16268,-5.34776,3
0.638883,5.71047,8.52562,-101.931,-8.96767,-3.09902,3
0.660419,5.34437,8.52682,-149.671,-9.95642,-0.867775,3
0.708275,4.78445,8.62133,-194.724,-9.79892,1.18847,3
0.748953,1.22512,9.29491,-265.879,-5.05644,9.30844,3
0.770488,-0.0861416,9.51386,-265.004,-3.54269,12.7559,3
0.748953,-0.9332,9.81894,-259.614,-3.67394,14.7422,3
0.728614,-1.63071,9.98405,-246.848,-4.39144,16.4922,3
0.803988,-2.00279,10.0833,-234.974,-5.78269,17.5072,3
0.875773,-2.8008,9.98285,-217.159,-4.80269,17.2009,3
0.891326,-3.10229,9.81057,-204.691,-7.20018,17.4372,3
0.9667,-3.3667,9.88235,-198.854,-10.1402,16.0459,3
1.00738,-3.7998,9.86201,-197.297,-13.8327,13.5522,3
1.13779,-4.49252,9.71725,-192.633,-16.5276,11.0059,3
1.30768,-6.11366,8.95154,-168.343,-20.8064,1.73972,3
1.27059,-6.64247,8.67757,-146.932,-19.6251,-1.52402,3
1.26939,-7.18086,8.48255,-117.445,-16.7727,-4.76151,3
1.24546,-8.91446,8.18943,-66.3272,-8.88017,-7.61401,3
1.20837,-10.7031,7.7671,12.0376,0.963545,-8.60275,3
1.26341,-10.8096,7.27418,102.39,6.09103,-9.1015,3
1.32443,-10.0247,7.11505,193.311,11.271,-10.8952,3
1.32203,-8.6668,6.81954,270.477,17.5622,-11.9977,3
1.24068,-5.60757,6.92363,285.203,20.7647,-11.499,3
1.23111,-2.17866,7.35434,285.203,21.7272,-11.674,3
0.801595,3.92901,9.69212,285.019,25.411,-12.6977,3
0.655633,5.0668,10.2496,258.166,22.541,-12.6277,3
0.503689,5.32403,10.3083,176.633,17.5272,-12.4527,3
0.472582,4.44586,9.7651,96.6673,12.5923,-10.4577,3
0.582652,3.39541,9.52582,36.1437,8.33978,-8.0165,3
0.656829,2.15474,9.49711,-1.30616,5.04978,-5.97776,3
0.6999,1.31964,9.62632,-18.3686,2.87104,-4.83151,3
0.650847,1.14736,10.051,-23.8986,1.23479,-4.35026,3
0.588634,1.44646,10.2748,-27.0223,0.0535483,-4.40276,3
0.62333,2.02313,10.2831,-32.1586,-1.20645,-2.88027,3
0.521635,4.5332,10.1898,-151.954,-10.9714,0.92597,3
0.448654,4.51286,10.0427,-220.581,-16.4751,2.60596,3
0.473778,3.27816,9.76869,-275.644,-21.8914,5.84345,3
0.642473,1.24187,9.42293,-288.165,-26.6076,9.12469,3
0.792024,-1.0337,9.07597,-288.165,-29.4601,11.4172,3
0.904486,-3.25663,8.79123,-288.165,-30.7113,13.0709,3
1.08873,-4.94835,8.62492,-288.165,-31.3414,13.4559,3
1.20837,-6.0993,8.56989,-287.973,-31.8314,13.2547,3
1.24068,-7.2981,8.51246,-269.712,-30.1864,13.2809,3
1.22273,-7.9657,8.3665,-218.183,-27.0626,12.3709,3
1.43091,-9.05324,7.57448,-41.0135,-13.2989,6.47345,3
1.47039,-9.2315,7.401,18.5388,-7.98768,4.60096,3
1.61755,-9.84407,7.01097,86.6398,-0.970199,3.60346,3
1.6678,-9.68016,6.9679,159.028,5.64478,3.45471,3
1.6678,-9.30329,6.76451,235.197,12.951,2.36972,3
1.59721,-8.05423,6.76929,282.245,19.6972,2.38722,3
1.50867,-5.94736,6.89013,285.203,25.0522,0.497221,3
1.38425,-3.56052,7.38305,285.203,28.4822,-1.17402,3
1.26102,-1.75155,8.065,285.203,30.8097,-3.41402,3
1.17607,-0.256032,8.65962,285.203,31.5272,-6.24026,3
0.656829,4.97587,10.794,229.886,23.3197,-16.1277,3
0.448654,4.90169,10.2628,142.36,16.6347,-14.7452,3
0.369691,4.4315,9.63708,65.3861,9.67852,-12.339,3
0.391226,3.62871,9.54616,3.69883,3.02854,-11.4202,3
0.484546,2.62134,9.80937,-39.7973,-1.9502,-12.1465,3
0.519242,2.0674,10.0714,-71.0435,-5.41519,-13.704,3
0.532403,1.92622,10.0893,-89.7684,-7.40143,-13.4152,3
0.527617,2.76969,10.2185,-115.038,-10.3589,-12.4702,3
0.552742,3.4313,10.0929,-151.106,-14.0602,-11.2277,3
0.602991,3.80219,9.86799,-196.886,-17.5864,-8.51525,3
0.857826,0.786041,9.18006,-288.165,-25.8464,3.35846,3
0.965504,-1.28016,9.03649,-288.165,-27.0189,7.08595,3
1.06361,-3.28295,8.88813,-288.165,-27.0364,10.1484,3
1.12702,-5.08355,8.81515,-286.389,-26.5376,12.8259,3
1.17846,-6.52403,8.75653,-256.543,-24.7876,14.1647,3
1.18684,-7.60678,8.65005,-197.971,-21.2526,14.3397,3
1.21077,-8.30668,8.51725,-130.106,-16.2214,13.6222,3
1.3005,-8.42034,8.34855,-61.1385,-11.2602,12.2922,3
1.38305,-8.18943,8.1332,4.77508,-6.08894,11.0584,3
1.52064,-7.97767,7.84487,66.8736,-1.1452,10.4634,3
1.58165,-5.21396,7.83051,207.503,13.966,9.49219,3
1.50987,-4.28076,8.132,231.627,18.516,8.5822,3
1.42732,-3.40738,8.58065,243.422,22.0072,7.19095,3
1.28734,-2.44427,8.91446,243.868,24.5185,5.27471,3
1.13779,-1.38664,9.33081,231.496,25.656,3.13971,3
0.972682,-0.367298,9.78185,206.873,25.1572,0.575971,3
0.796809,0.404387,10.2006,172.022,23.5647,-1.81277,3
0.652044,0.954736,10.4315,128.412,20.2922,-3.77277,3
0.617348,1.07916,10.483,81.1099,15.8123,-5.40026,3
0.544367,0.984646,10.4351,36.2837,11.4198,-6.81776,3
0.59342,-0.82313,10.398,-36.3586,0.981045,-8.0515,3
0.599402,-1.35194,10.4495,-34.2236,-0.6902,-7.76275,3
0.679561,-1.67976,10.4016,-23.2948,-1.52145,-7.09776,3
0.711864,-1.71805,10.3178,-7.80739,-1.7402,-6.28401,3
0.690329,-1.43809,10.3023,8.14382,-1.9502,-5.22526,3
0.683151,-0.97986,10.2377,21.1813,-1.9852,-3.99152,3
0.736989,-0.573081,10.1216,29.31,-2.1602,-2.52152,3
0.750149,-0.244068,10.014,31.7775,-2.1952,-1.25277,3
0.739382,-0.0382851,9.95055,28.4,-2.5802,-0.290277,3
0.727417,0.04666,9.89312,20.105,-3.22769,0.523471,3
0.843469,-0.527617,9.72443,-8.18364,-4.06769,2.36097,3
0.869791,-0.845862,9.69452,-12.0599,-3.63019,2.86846,3
0.88654,-1.10429,9.72443,-12.5936,-3.10519,2.97346,3
0.917647,-1.35194,9.79621,-9.50488,-2.1952,3.00846,3
0.971485,-1.46321,9.82612,-4.00115,-1.17145,2.91221,3
0.991824,-1.41057,9.85962,1.73884,-0.305202,2.75471,3
1.0002,-1.30887,9.87039,6.35007,0.438547,2.35222,3
0.994217,-1.22034,9.8644,9.23756,1.04229,1.90597,3
0.987039,-1.06481,9.84766,10.0513,1.22604,1.38097,3
0.957129,-0.928415,9.82851,7.89882,1.36604,0.724721,3
0.849451,-0.990628,9.94337,-2.65365,0.683546,-0.937775,3
0.821934,-1.04327,9.99481,-3.8874,0.709796,-1.35777,3
0.817148,-1.08634,10.0331,-3.42365,0.587296,-1.74277,3
0.801595,-1.08155,10.0367,-1.7699,0.753546,-2.03152,3
0.768095,-1.01695,10.014,0.27759,0.946045,-2.29402,3
0.79322,-0.92004,9.9984,1.89634,0.753546,-2.39027,3
0.794416,-0.807577,9.9673,2.92883,0.604796,-2.27652,3
0.80997,-0.691525,9.95533,2.98133,0.473547,-2.04902,3
0.824327,-0.60658,9.9649,2.17633,0.412297,-1.72527,3
0.811166,-0.607777,9.98524,0.960088,0.298547,-1.40152,3
0.815952,-0.684347,10.051,-0.719907,0.368547,-0.0190272,3
0.803988,-0.713061,10.063,-0.0899096,0.438547,0.453471,3
0.800399,-0.734596,10.0343,0.400089,0.298547,0.83847,3
0.805184,-0.740578,10.0319,0.671338,0.184798,1.04847,3
0.820738,-0.734596,10.0534,0.540089,-0.121452,1.23222,3
0.80638,-0.872184,10.0223,-0.142409,-0.418951,1.38097,3
0.814755,-0.994217,9.99003,-0.466158,-0.87395,1.43347,3
0.843469,-1.00857,9.9972,0.32134,-1.2502,1.42472,3
0.833898,-0.975075,10.0247,1.51134,-1.3727,1.44222,3
0.837487,-0.954736,10.0259,2.48258,-1.25895,1.21472,3
0,0,0,0,0,0,3
0,0,0,0,0,0,3
0,0,0,0,0,0,3
0,0,0,0,0,0,3
0,0,0,0,0,0,3
0,0,0,0,0,0,3
0,0,0,0,0,0,3
0,0,0,0,0,0,3
0,0,0,0,0,0,3
0,0,0,0,0,0,3
0,0,0,0,0,0,3
0,0,0,0,0,0,3
0,0,0,0,0,0,3
0,0,0,0,0,0,3
0,0,0,0,0,0,3
0,0,0,0,0,0,3
0,0,0,0,0,0,3
0,0,0,0,0,0,3
0,0,0,0,0,0,3
0,0,0,0,0,0,3
0,0,0,0,0,0,3
0,0,0,0,0,0,3
0,0,0,0,0,0,3
0,0,0,0,0,0,3
0,0,0,0,0,0,3
0,0,0,0,0,0,3
0,0,0,0,0,0,3
0,0,0,0,0,0,3
0,0,0,0,0,0,3
0,0,0,0,0,0,3
0,0,0,0,0,0,3
0,0,0,0,0,0,3
0,0,0,0,0,0,3
0,0,0,0,0,0,3
0,0,0,0,0,0,3
0,0,0,0,0,0,3
0,0,0,0,0,0,3
0,0,0,0,0,0,3
0,0,0,0,0,0,3
0,0,0,0,0,0,3
0,0,0,0,0,0,3
0,0,0,0,0,0,3
0,0,0,0,0,0,3
0,0,0,0,0,0,3
0,0,0,0,0,0,3
0,0,0,0,0,0,3
0,0,0,0,0,0,3
0.821934,1.45125,10.1659,-62.5647,-5.89643,-1.46277,3
0.78006,2.132,10.1575,-105.037,-10.0352,-2.56527,3
0.843469,2.4012,10.1432,-158.753,-15.2852,-2.72277,3
0.82672,1.78983,10.0798,-217.081,-20.7626,-2.91527,3
0.812363,0.187836,9.94576,-262.178,-25.5051,-1.43652,3
0.835095,-1.59601,9.59521,-285.444,-28.6114,0.93472,3
0.99661,-3.64786,9.18365,-287.43,-29.9326,2.68471,3
1.18564,-5.25822,9.02931,-272.065,-29.6439,3.36721,3
1.29332,-6.00718,8.98624,-235.149,-28.7776,3.83971,3
1.37468,-6.36849,8.9647,-190.936,-26.0826,3.89221,3
1.49192,-6.28953,8.55793,-55.906,-14.2439,1.38972,3
1.45005,-5.88395,8.32582,-18.9374,-9.72017,1.32847,3
1.40698,-5.44367,8.14875,11.6176,-5.61644,1.91472,3
1.37109,-5.20438,8.03509,34.3763,-2.0027,2.53596,3
1.37468,-5.62074,7.83051,57.5287,2.37229,3.22721,3
1.48235,-5.91864,7.82572,84.2949,6.66853,4.14596,3
1.48953,-5.99162,7.8999,115.768,12.1373,4.49596,3
1.45962,-6.55154,7.73479,160.56,19.776,5.44971,3
1.45364,-6.8662,7.7982,213.759,25.866,6.49096,3
1.40459,-6.29073,8.08534,263.346,29.541,5.19596,3
1.25982,-0.0275174,9.55453,285.203,33.2072,-0.0715271,3
1.13061,1.81615,10.1324,280.215,30.5997,-2.49527,3
0.867398,3.42652,10.7079,235.337,26.6097,-4.91901,3
0.600598,4.09053,10.8825,161.522,19.6885,-6.43276,3
0.585045,3.82732,10.7282,85.0648,10.6673,-6.80901,3
0.585045,3.17647,10.6576,16.6925,1.93479,-7.46526,3
0.611366,1.65224,10.5775,-31.3623,-4.16394,-8.454,3
0.624527,0.587438,10.3801,-58.251,-7.58518,-9.3815,3
0.64008,0.461814,10.1994,-73.5284,-10.0002,-10.2652,3
0.689132,0.57667,10.0008,-83.9497,-12.0739,-10.2565,3
0.848255,1.67019,9.55812,-132.145,-15.5827,-4.15776,3
0.927218,1.67139,9.52103,-163.496,-17.1926,-2.25027,3
0.96311,0.843469,9.43848,-191.959,-18.2514,0.0772225,3
1.02772,-0.510867,9.36072,-212.259,-18.4789,2.78971,3
1.08634,-2.10808,9.33559,-218.524,-17.8226,4.82846,3
1.15095,-3.21715,9.40738,-212.023,-16.6327,6.4122,3
1.20957,-3.83569,9.32841,-198.041,-15.6702,7.43595,3
1.23948,-4.47218,9.18963,-176.358,-14.2789,8.2672,3
1.2682,-4.79402,9.09152,-153.512,-13.1764,8.1622,3
1.27896,-5.02493,8.97308,-129.651,-11.9602,7.78595,3
1.36152,-5.04526,8.75653,-81.5522,-9.63268,5.59846,3
1.36391,-5.24267,8.62492,-71.9797,-9.31767,5.02096,3
1.3005,-5.39462,8.5675,-62.031,-8.22393,4.56596,3
1.26341,-5.9665,8.60339,-47.0335,-5.88769,3.62096,3
1.25025,-6.84706,8.5974,-22.9361,-2.04645,2.14222,3
1.32443,-8.1655,8.33539,16.4475,2.88854,0.768471,3
1.49192,-9.22672,7.95015,77.2861,8.12978,1.14472,3
1.54337,-8.67637,7.77428,143.777,11.9535,0.514721,3
1.52901,-7.69531,7.6319,210.872,16.1097,-0.640275,3
1.45005,-5.59681,7.72403,263.704,19.706,-1.62027,3
1.1653,0.0358923,9.28415,282.972,25.0435,-3.51027,3
1.00259,1.34716,9.79142,256.319,23.7835,-3.93027,3
0.909272,2.34616,10.1862,203.881,20.4672,-4.52526,3
0.833898,2.68833,10.3657,139.428,15.7073,-5.22526,3
0.727417,2.72303,10.3011,70.0323,10.1598,-5.96026,3
0.708275,2.43589,10.0917,6.61257,4.50728,-6.17901,3
0.792024,1.51466,9.97926,-40.8035,0.692296,-5.55776,3
0.817148,0.528813,10.1109,-72.3909,-2.81644,-4.77901,3
0.812363,-0.404387,10.2688,-88.0709,-5.52894,-4.06152,3
0.866201,-1.11984,10.2784,-88.5434,-6.61393,-2.65277,3
0.93679,-1.87478,9.91585,-43.7873,-4.97769,3.13971,3
0.982253,-1.75155,9.81775,-26.7161,-3.74394,4.60971,3
0.971485,-1.48594,9.76989,-14.7286,-2.60645,5.76471,3
0.970289,-0.975075,9.76391,-13.2236,-2.30894,6.30721,3
0.957129,-0.333799,9.80219,-26.3486,-2.98269,6.4822,3
0.952343,0.00478564,9.79142,-49.4135,-4.66269,6.9722,3
0.994217,-0.247657,9.71366,-76.2497,-6.27268,7.5147,3
0.988235,-1.10548,9.61675,-99.8134,-7.59393,7.9522,3
0.999003,-2.31266,9.59043,-114.522,-8.46018,7.85595,3
1.03609,-3.38943,9.56889,-116.368,-8.32893,7.10345,3
1.19402,-5.0979,9.49591,-55.6785,-5.13519,4.39971,3
1.26102,-5.06441,9.39541,-25.0711,-3.21019,3.40221,3
1.25743,-4.74616,9.32602,4.08383,-1.31145,2.50972,3
1.23589,-4.25922,9.28415,28.12,-0.112701,1.66972,3
1.24427,-3.92183,9.24347,48.21,1.68104,1.21472,3
1.24666,-3.46361,9.28056,61.9387,3.22104,0.610971,3
1.20957,-3.0006,9.35115,69.3411,4.41104,-0.141527,3
1.1342,-2.64287,9.44925,72.1586,5.62728,-0.605276,3
1.066,-2.30309,9.50189,70.6886,6.51103,-1.15652,3
1.02772,-2.04467,9.54257,65.4824,6.76478,-1.77777,3
0.916451,-1.4333,9.7675,39.3637,6.21353,-2.90652,3
0.922433,-1.40578,9.81655,29.66,5.59228,-2.92402,3
0.915254,-1.40219,9.89312,20.9625,4.83978,-3.04652,3
0.939182,-1.46201,9.9673,13.8138,3.99979,-3.10777,3
0.935593,-1.53739,10.0415,8.70382,3.20354,-3.12527,3
0.942772,-1.60917,10.0822,5.81632,2.24979,-2.94152,3
0.954736,-1.63908,10.1216,4.86258,1.49729,-2.65277,3
0.958325,-1.66899,10.1192,5.38758,0.884795,-2.29402,3
0.972682,-1.65703,10.0941,6.87507,0.464797,-1.86527,3
0.954736,-1.64626,10.0522,8.68632,-0.0514517,-1.40152,3
0.942772,-1.46201,9.90389,10.7426,-0.952699,0.400972,3
0.940379,-1.46321,9.84646,9.93756,-1.10145,1.02222,3
0.939182,-1.45483,9.80698,8.38007,-1.13645,1.38972,3
0.945164,-1.44407,9.77348,5.75507,-1.36395,1.64347,3
0.942772,-1.46082,9.75194,2.85883,-1.31145,1.83597,3
0.939182,-1.5326,9.71605,0.30384,-1.3377,2.04597,3
0.959521,-1.67139,9.69093,-1.6124,-1.0402,2.26472,3
0.972682,-1.78146,9.72562,-2.26865,-0.68145,2.27347,3
0.995414,-1.8676,9.73639,-1.7349,-0.340201,2.10722,3
1.02772,-1.92383,9.77707,-0.562408,0.0622983,1.86222,3
1.05404,-1.85803,9.85364,1.73884,0.386047,0.680971,3
1.06959,-1.7994,9.88714,1.41509,0.193548,0.348472,3
1.06839,-1.87119,9.85962,1.29259,0.377297,-0.00152731,3
1.05763,-1.8006,9.85244,1.07384,0.324797,-0.561526,3
1.04925,-1.75753,9.8333,0.452589,0.0885477,-0.972774,3
1.04088,-1.80299,9.84526,0.12884,-0.0339518,-1.29652,3
1.00977,-1.78983,9.86201,0.452589,-0.0602016,-1.55027,3
0.990628,-1.74796,9.87278,0.925088,-0.0689521,-1.72527,3
0.97986,-1.74317,9.83091,1.79134,0.263547,-1.80402,3
0.969093,-1.66062,9.84048,2.42133,0.263547,-1.81277,3
0.9332,-1.49073,9.84766,3.35758,0.473547,-1.14777,3
0.928415,-1.47996,9.85484,2.92883,0.552296,-0.894025,3
0.947557,-1.45723,9.87278,2.29008,0.569796,-0.596526,3
0.946361,-1.47039,9.90867,1.66884,0.596046,-0.237777,3
0,0,0,0,0,0,3
0,0,0,0,0,0,3
0,0,0,0,0,0,3
0,0,0,0,0,0,3
0,0,0,0,0,0,3
0,0,0,0,0,0,3
0,0,0,0,0,0,3
0,0,0,0,0,0,3
0,0,0,0,0,0,3
0,0,0,0,0,0,3
0,0,0,0,0,0,3
0,0,0,0,0,0,3
0,0,0,0,0,0,3
0,0,0,0,0,0,3
0,0,0,0,0,0,3
0,0,0,0,0,0,3
0,0,0,0,0,0,3
0,0,0,0,0,0,3
0,0,0,0,0,0,3
0,0,0,0,0,0,3
0,0,0,0,0,0,3
0,0,0,0,0,0,3
0,0,0,0,0,0,3
0,0,0,0,0,0,3
0,0,0,0,0,0,3
0,0,0,0,0,0,3
0,0,0,0,0,0,3
0,0,0,0,0,0,3
0,0,0,0,0,0,3
0,0,0,0,0,0,3
0,0,0,0,0,0,3
0,0,0,0,0,0,3
0,0,0,0,0,0,3
0,0,0,0,0,0,3
0,0,0,0,0,0,3
0,0,0,0,0,0,3
0,0,0,0,0,0,3
0,0,0,0,0,0,3
0,0,0,0,0,0,3
0,0,0,0,0,0,3
0,0,0,0,0,0,3
0,0,0,0,0,0,3
0,0,0,0,0,0,3
0,0,0,0,0,0,3
0,0,0,0,0,0,3
0,0,0,0,0,0,3
0,0,0,0,0,0,3
0,0,0,0,0,0,3
0,0,0,0,0,0,3
0,0,0,0,0,0,3
0,0,0,0,0,0,3
0,0,0,0,0,0,3
0,0,0,0,0,0,3
0,0,0,0,0,0,3
0,0,0,0,0,0,3
0,0,0,0,0,0,3
0,0,0,0,0,0,3
0,0,0,0,0,0,3
0,0,0,0,0,0,3
0,0,0,0,0,0,3
0,0,0,0,0,0,3
0,0,0,0,0,0,3
0,0,0,0,0,0,3
0,0,0,0,0,0,3
0,0,0,0,0,0,3
0,0,0,0,0,0,3
0,0,0,0,0,0,3
0,0,0,0,0,0,3
0,0,0,0,0,0,3
0,0,0,0,0,0,3
0,0,0,0,0,0,3
0,0,0,0,0,0,3
0,0,0,0,0,0,3
0,0,0,0,0,0,3
0,0,0,0,0,0,3
0,0,0,0,0,0,3
0,0,0,0,0,0,3
0,0,0,0,0,0,3
0,0,0,0,0,0,3
0,0,0,0,0,0,3
0,0,0,0,0,0,3
0,0,0,0,0,0,3
0,0,0,0,0,0,3
0,0,0,0,0,0,3
0,0,0,0,0,0,3
0,0,0,0,0,0,3
0.957129,-0.214157,10.1324,-30.6361,-3.86644,-0.281527,3
0.914058,0.527617,10.2508,-57.6297,-6.73643,-1.25277,3
0.900897,0.407976,9.97328,-198.224,-21.9701,-1.82152,3
0.99661,-0.522831,9.70289,-241.519,-26.9926,-0.710275,3
1.16052,-1.94417,9.32482,-274.953,-31.4551,0.190972,3
1.2335,-3.4648,9.09751,-287.133,-34.1851,1.80097,3
1.30887,-4.46979,9.18126,-285.199,-35.8126,3.20096,3
1.27896,-5.04885,9.15852,-275.627,-36.5913,4.17221,3
1.31725,-6.04785,8.87856,-253.498,-35.7601,5.41471,3
1.334,-6.68674,8.50887,-222.646,-33.7476,6.33345,3
1.36391,-7.00738,8.19781,-187.234,-30.8076,6.3597,3
1.3986,-7.22393,7.81137,-149.469,-27.2551,5.76471,3
1.65822,-7.94895,6.8315,-23.1461,-10.2627,2.63222,3
1.64865,-8.54835,6.50608,26.4488,-1.62645,2.11597,3
1.71924,-8.88095,6.31585,80.6548,4.69979,2.67597,3
1.68933,-7.96331,6.4343,126.137,8.37477,2.92971,3
1.65942,-7.67617,6.48215,171.2,13.3798,3.24471,3
1.63789,-7.2,6.67238,215.789,19.7147,4.74096,3
1.55174,-6.20099,6.79442,253.686,26.0585,5.24846,3
1.53141,-5.08474,7.04446,279.253,31.011,5.44096,3
1.55773,-4.18385,7.50508,285.203,35.6309,5.23971,3
1.51824,-3.19561,8.24805,285.203,39.0609,4.74096,3
1.34237,0.118445,10.3537,243.789,35.9459,0.374722,3
1.17009,1.09113,10.7952,192.97,30.7835,-1.53277,3
0.970289,1.49551,10.9017,134.24,24.1597,-3.27402,3
0.741775,2.02193,10.9866,66.7599,15.576,-5.14651,3
0.683151,2.38205,10.8957,-5.67239,5.30353,-7.97275,3
0.696311,1.9992,10.8802,-70.9647,-3.38519,-9.574,3
0.720239,1.47158,10.9208,-131.672,-12.2577,-10.7027,3
0.786041,0.392423,10.7533,-180.243,-19.7389,-10.8602,3
0.825523,-0.638883,10.4961,-214.727,-24.9539,-10.204,3
0.848255,-1.60319,10.0965,-235.009,-28.4014,-8.559,3
1.04088,-3.6323,9.04965,-237.687,-31.9451,-2.50402,3
1.05882,-4.00678,8.88335,-228.788,-31.4814,-0.867775,3
1.16052,-4.24846,8.62133,-219.408,-31.0264,0.724721,3
1.25982,-4.42313,8.42871,-211.323,-30.4576,2.32597,3
1.34237,-4.80718,8.09731,-204.201,-29.8101,3.99721,3
1.49791,-5.6327,7.71924,-191.417,-27.8239,5.53721,3
1.53619,-6.35773,7.52542,-173.506,-24.9364,6.32471,3
1.58524,-6.79801,7.38425,-152.786,-21.8739,6.47345,3
1.6678,-7.32921,7.14496,-126.545,-18.1639,6.07096,3
1.72044,-7.65942,6.89252,-97.1971,-14.3839,5.14346,3
1.80419,-8.41436,6.55274,-0.19491,-0.6377,2.48347,3
1.88195,-9.52343,6.29073,48.91,8.12103,2.05472,3
1.9011,-10.2903,6.0993,112.146,15.6548,2.52722,3
1.90828,-9.82851,6.02034,174.385,18.8397,1.56472,3
1.88435,-9.05444,6.15314,237.524,22.2785,0.208472,3
1.74796,-7.57687,6.44147,280.084,26.9597,-0.815275,3
1.6654,-5.72961,6.79082,285.203,32.6734,-1.17402,3
1.61276,-4.13599,7.26341,285.203,38.1772,-1.27027,3
1.42851,-2.64048,7.95015,285.203,41.8959,-1.75152,3
1.27298,-0.642473,8.89531,285.203,41.7209,-2.88902,3
0.728614,4.37767,11.0728,72.2111,20.931,-8.9265,3
0.760917,3.24227,10.4949,-32.4561,12.706,-7.61401,3
0.760917,1.47757,10.2939,-115.528,3.36979,-6.63401,3
0.775274,-0.713061,10.3298,-170.924,-4.92519,-6.55526,3
0.841076,-2.81276,10.2855,-194.952,-9.99142,-6.94901,3
0.964307,-4.49372,10.2042,-190.656,-12.7564,-7.04526,3
1.02413,-5.44606,10.0893,-164.834,-13.2552,-6.63401,3
1.07079,-5.66859,9.8345,-126.055,-12.5552,-5.88151,3
1.10668,-5.67577,9.50907,-81.5522,-10.7789,-5.01526,3
1.12463,-5.21515,9.28295,-38.8785,-9.13393,-4.28901,3
1.15813,-2.40479,9.02094,3.80383,-6.71893,-0.719025,3
1.14257,-2.45025,8.91924,-3.7299,-6.41268,1.50347,3
1.19043,-2.76371,8.81157,-15.2099,-6.29894,3.17471,3
1.25025,-3.26142,8.74576,-25.6486,-6.05394,4.24221,3
1.3005,-3.85364,8.73021,-30.5136,-5.00394,5.09096,3
1.33878,-4.48295,8.6991,-27.2148,-3.35019,5.72095,3
1.37348,-4.89332,8.71824,-16.1986,-1.1102,6.08846,3
1.39143,-4.93759,8.74337,-1.13116,1.10354,6.22845,3
1.38066,-4.81316,8.82592,14.1288,2.73104,6.21095,3
1.3986,-4.90289,8.85822,31.2087,4.52478,6.20221,3
1.40937,-4.58584,9.09033,80.9173,10.0985,4.93346,3
1.35553,-4.13838,9.21117,91.3473,10.9385,3.98846,3
1.28016,-3.52462,9.37029,95.8885,11.1485,2.94722,3
1.20239,-2.91087,9.53539,93.3161,10.9648,2.04597,3
1.12223,-2.40837,9.62751,84.0411,10.221,1.22347,3
1.03968,-2.16191,9.71366,69.3936,8.73352,0.365972,3
0.982253,-2.05065,9.81655,52.8824,7.09728,-0.465276,3
0.946361,-2.02911,9.89072,35.7937,5.35603,-1.18277,3
0.955932,-2.12363,9.90628,20.3238,3.77229,-1.77777,3
0.969093,-2.35334,9.89192,8.84381,2.38979,-2.38152,3
1.01934,-2.77208,9.74835,2.40383,0.464797,-2.95902,3
1.02413,-2.79123,9.70528,6.62132,0.508546,-2.73152,3
1.0337,-2.76969,9.66221,11.7226,0.534796,-2.28527,3
1.02891,-2.67757,9.64546,17.1913,1.0073,-1.72527,3
1.02054,-2.49093,9.64426,21.6888,1.48854,-1.15652,3
1.01097,-2.2325,9.60957,22.6688,1.0248,-0.719025,3
1.03729,-2.11645,9.62273,21.085,0.657296,-0.159027,3
1.03968,-1.97886,9.6993,17.34,0.394797,0.313472,3
1.04447,-1.88435,9.71485,11.7138,0.263547,0.78597,3
1.05164,-1.92622,9.66819,4.94133,-0.208951,1.22347,3
1.08395,-2.50409,9.70528,-5.05115,-0.646451,1.83597,3
1.09591,-2.67398,9.68973,-3.80865,-0.7252,1.80097,3
1.08873,-2.7338,9.68853,-0.877407,-0.5852,1.74847,3
1.07916,-2.65244,9.70528,2.62258,-0.59395,1.66972,3
1.07916,-2.56032,9.6981,5.36133,-0.558951,1.66972,3
1.066,-2.53878,9.71246,7.30382,-0.340201,1.62597,3
1.07079,-2.61775,9.69332,9.91131,-0.0427017,1.60847,3
1.06361,-2.57826,9.70887,12.1338,0.202297,1.33722,3
1.03848,-2.55793,9.71366,14.2338,0.429797,1.10097,3
1.04686,-2.45025,9.69093,15.8613,0.937295,0.81222,3
1.03131,-2.16909,9.6993,11.7051,0.893545,0.269722,3
1.01456,-2.17148,9.68375,8.68632,0.841046,0.103472,3
1.00977,-2.1655,9.68375,5.19508,0.639796,0.00722265,3
1.02293,-2.23489,9.67776,2.25508,0.263547,-0.00152731,3
1.03131,-2.2983,9.6993,0.741338,0.0972977,-0.0190272,3
1.05284,-2.30429,9.72682,0.671338,0.106048,-0.0540272,3
1.07198,-2.30309,9.75434,1.44134,0.132298,-0.150277,3
1.07797,-2.31745,9.76031,2.70133,0.176048,-0.220277,3
1.07079,-2.27916,9.7675,3.87383,0.394797,-0.342777,3
1.08155,-2.24566,9.74955,5.02008,0.359797,-0.447776,3
1.066,-2.1009,9.74596,6.50757,0.666046,-0.299026,3
1.066,-2.06022,9.74476,5.79882,0.744796,-0.299026,3
1.05404,-2.05304,9.73878,4.58258,0.648546,-0.369026,3
1.04686,-2.05783,9.73998,2.84133,0.298547,-0.369026,3
1.02891,-2.05783,9.73759,1.19634,0.0972977,-0.299026,3
1.03489,-2.07697,9.74117,0.0763402,0.00104809,-0.150277,3
1.02173,-2.11406,9.74716,-0.273659,0.132298,0.0159726,3
1.0325,-2.16431,9.75314,-0.256159,0.0272975,0.0947224,3
1.0337,-2.15713,9.74476,0.12884,0.0272975,0.155972,3
1.03609,-2.12483,9.75075,0.548839,-0.095202,0.252222,3
1.05164,-2.12243,9.79023,0.540089,0.184798,0.409721,3
1.05523,-2.1332,9.79621,0.19884,0.228548,0.383472,3
1.04447,-2.14516,9.7675,-0.0111594,0.298547,0.409721,3
1.04207,-2.1344,9.75194,-0.247409,0.237298,0.278472,3
1.0337,-2.17627,9.75434,-0.369909,0.167298,0.208472,3
1.02652,-2.21216,9.7651,-0.641158,0.018548,0.138472,3
1.03729,-2.22652,9.78424,-0.632408,-0.103952,0.217222,3
1.05164,-2.19422,9.76271,-0.361158,-0.147702,0.243472,3
1.03968,-2.199,9.73639,-0.0374093,-0.261451,0.234722,3
1.03609,-2.20857,9.71844,0.37384,-0.375201,0.252222,3
1.03489,-2.10209,9.70768,0.732589,-0.00770235,0.234722,3
1.04088,-2.09611,9.72323,0.23384,0.193548,0.252222,3
0,0,0,0,0,0,3
0,0,0,0,0,0,3
0,0,0,0,0,0,3
0,0,0,0,0,0,3
0,0,0,0,0,0,3
0,0,0,0,0,0,3
0,0,0,0,0,0,3
0,0,0,0,0,0,3
0,0,0,0,0,0,3
0,0,0,0,0,0,3
0,0,0,0,0,0,3
0,0,0,0,0,0,3
0,0,0,0,0,0,3
0,0,0,0,0,0,3
0,0,0,0,0,0,3
0,0,0,0,0,0,3
0,0,0,0,0,0,3
0,0,0,0,0,0,3
0,0,0,0,0,0,3
0,0,0,0,0,0,3
0,0,0,0,0,0,3
0,0,0,0,0,0,3
0,0,0,0,0,0,3
0,0,0,0,0,0,3
0,0,0,0,0,0,3
0,0,0,0,0,0,3
0,0,0,0,0,0,3
0,0,0,0,0,0,3
0,0,0,0,0,0,3
0,0,0,0,0,0,3
0,0,0,0,0,0,3
0,0,0,0,0,0,3
0,0,0,0,0,0,3
0,0,0,0,0,0,3
0,0,0,0,0,0,3
0,0,0,0,0,0,3
0,0,0,0,0,0,3
0,0,0,0,0,0,3
0,0,0,0,0,0,3
0,0,0,0,0,0,3
0,0,0,0,0,0,3
0,0,0,0,0,0,3
0,0,0,0,0,0,3
0,0,0,0,0,0,3
0,0,0,0,0,0,3
0,0,0,0,0,0,3
0,0,0,0,0,0,3
0,0,0,0,0,0,3
0,0,0,0,0,0,3
0,0,0,0,0,0,3
0,0,0,0,0,0,3
0,0,0,0,0,0,3
0,0,0,0,0,0,3
0,0,0,0,0,0,3
0,0,0,0,0,0,3
0,0,0,0,0,0,3
0,0,0,0,0,0,3
0,0,0,0,0,0,3
0,0,0,0,0,0,3
0,0,0,0,0,0,3
0,0,0,0,0,0,3
0,0,0,0,0,0,3
0,0,0,0,0,0,3
0,0,0,0,0,0,3
0,0,0,0,0,0,3
0,0,0,0,0,0,3
1.0337,-2.0315,9.73519,26.1863,3.24729,0.190972,3
1.00379,-1.82453,9.81775,28.3038,3.67604,0.278472,3
0.9332,-1.74078,9.85723,27.7525,3.53604,0.120972,3
0.940379,-1.58883,9.86321,26.0288,3.35229,0.0422225,3
0.945164,-1.56012,9.87398,24.27,3.49229,0.182222,3
0.943968,-1.74317,9.89072,23.815,3.63229,0.418471,3
0.912861,-1.80658,9.89312,23.92,3.50979,-0.0715271,3
0.942772,-1.67139,9.87637,24.8213,2.75729,-0.447776,3
0.923629,-1.066,9.88115,17.97,0.666046,-0.867775,3
0.987039,-0.748953,9.88594,8.31882,-0.48895,-0.894025,3
0.930808,-0.18664,9.97567,-8.53364,-1.95895,-1.62027,3
0.898504,0.612562,10.0941,-37.0061,-4.48769,-2.61777,3
0.814755,1.49671,10.1791,-82.1822,-8.86268,-4.35901,3
0.833898,1.8341,10.1228,-139.188,-14.6027,-5.23401,3
0.850648,1.2347,10.0092,-198.364,-19.9226,-5.29526,3
0.80638,0.0502492,9.82732,-251.267,-24.4551,-4.21026,3
0.965504,-1.47996,9.51027,-284.394,-29.3464,-3.18652,3
1.20957,-3.16092,9.09152,-288.165,-33.0388,-1.81277,3
1.46321,-6.23808,8.44067,-282.206,-33.4414,1.24972,3
1.45005,-6.48215,8.2002,-261.39,-33.0564,1.44222,3
1.41775,-7.07198,7.92024,-231.938,-31.2364,1.39847,3
1.33998,-7.45244,7.61396,-200.316,-28.6901,1.28472,3
1.39382,-7.7001,7.267,-167.319,-26.1964,0.82097,3
1.44526,-7.82333,6.91525,-134.656,-23.1776,-0.0452772,3
1.50149,-8.01595,6.66759,-101.047,-19.7914,-0.841525,3
1.62712,-8.37966,6.47138,-64.9885,-14.9352,-1.47152,3
1.69412,-8.99581,6.24885,-20.1273,-6.84143,-1.34902,3
1.77667,-9.33559,6.03589,28.3388,-0.6552,-0.876525,3
1.84008,-9.02811,5.64945,208.019,15.3398,2.05472,3
1.7671,-7.64985,5.89232,255.995,19.2772,2.30847,3
1.71685,-6.13998,6.1998,283.033,24.2647,3.34096,3
1.65344,-4.7677,6.61615,285.203,29.3835,4.50471,3
1.60678,-3.81176,7.1988,285.203,34.0559,5.35346,3
1.51466,-3.08076,7.91784,285.203,38.3172,5.6247,3
1.36152,-1.88913,8.7003,285.203,40.0234,5.28346,3
1.21675,-0.489332,9.50907,280.88,38.5797,4.16346,3
1.03848,1.46201,10.5308,234.007,33.9159,1.79222,3
0.888933,3.22433,11.2905,144.748,25.5597,-1.25277,3
0.83988,2.09611,10.7342,-148.831,-3.65644,-6.17026,3
0.943968,-0.497707,10.5751,-214.482,-12.5464,-6.31026,3
0.929611,-2.39043,10.337,-253.2,-19.7651,-6.78276,3
0.978664,-4.33699,9.96849,-262.257,-24.7964,-6.62526,3
1.07079,-5.665,9.64905,-246.865,-26.8001,-6.24901,3
1.0672,-6.06819,9.45045,-218.822,-27.1326,-6.42401,3
1.10548,-6.18903,9.09631,-184.268,-26.3539,-6.27526,3
1.11625,-5.75832,8.88335,-155.131,-25.6364,-6.41526,3
1.17368,-5.18524,8.53998,-133.859,-25.0851,-6.44151,3
1.21555,-4.55832,8.32223,-122.178,-24.3239,-4.97151,3
1.50269,-4.7665,7.39621,-145.208,-23.6414,0.365972,3
1.63071,-5.90189,7.10668,-143.782,-21.3664,1.92347,3
1.71446,-7.05284,6.89252,-131.786,-18.3739,2.53596,3
1.72403,-7.82093,6.74297,-109.027,-14.6727,2.72847,3
1.82692,-8.49332,6.61974,-77.4222,-10.3677,2.59721,3
1.88674,-10.069,6.3649,-25.1936,-1.29395,2.42222,3
1.94656,-11.7631,5.85882,53.8187,9.64352,3.24471,3
1.97886,-11.8959,5.58843,142.237,15.0598,4.00596,3
1.99322,-10.7988,5.6339,222.877,18.2797,2.22972,3
1.89272,-9.06879,5.95454,278.334,21.701,0.759721,3
1.64865,-2.96471,7.04207,285.203,38.3959,1.42472,3
1.3998,-1.35673,7.82453,285.203,42.1847,1.65222,3
1.18205,0.637687,8.98744,285.203,41.0559,0.00722265,3
0.991824,3.19681,10.4877,276.191,35.4384,-4.15776,3
0.820738,5.07039,11.2833,192.69,27.966,-7.929,3
0.654437,4.92801,11.062,72.6924,20.5722,-7.929,3
0.717846,3.40618,10.3394,-30.8548,12.8548,-6.66026,3
0.744167,1.36391,10.2221,-108.8,4.51604,-6.38026,3
0.775274,-0.599402,10.2652,-157.904,-3.35894,-7.11526,3
0.916451,-2.75892,10.2616,-174.809,-8.33768,-7.09776,3
1.04925,-5.70209,9.95174,-70.7547,-7.90018,-3.11652,3
1.13539,-5.3336,9.76869,-12.9436,-5.78269,-1.62902,3
1.09232,-4.6995,9.69212,39.1712,-3.71769,-0.745275,3
1.08634,-3.82493,9.41814,82.2036,-0.6902,0.225972,3
1.14138,-2.58903,9.25304,110.046,2.19729,1.58222,3
1.12941,-1.62592,9.25184,120.607,3.43104,2.92971,3
1.10309,-0.945164,9.28056,116.18,3.64104,4.14596,3
1.11266,-0.484546,9.38345,99.8961,3.64104,4.89846,3
1.09113,-0.175872,9.51386,75.6674,3.62354,5.20471,3
1.06481,-0.120837,9.62512,45.8212,2.89729,4.98596,3
1.15454,-0.97986,9.77587,-36.5686,-0.322701,2.41347,3
1.17607,-1.07916,9.84766,-58.111,-2.1252,1.22347,3
1.1988,-1.20359,9.88474,-77.7547,-3.75269,0.654721,3
1.18205,-0.758524,10.0857,-105.405,-6.92018,-0.806525,3
1.15454,-0.594616,10.0499,-138.453,-10.8314,-1.81277,3
1.11505,-0.679561,9.91346,-175.221,-14.3402,-1.72527,3
1.11984,-1.5003,9.60239,-204.236,-17.8051,-0.824025,3
1.17846,-3.14417,9.33081,-218.988,-19.6426,0.339722,3
1.2347,-4.64088,9.11784,-217.536,-20.2639,0.313472,3
1.29691,-5.84925,8.97906,-198.251,-19.5201,-0.0540272,3
1.40578,-6.90688,8.57467,-79.2597,-11.4527,-2.19777,3
1.42134,-6.69392,8.38923,-36.0785,-8.12768,-2.53902,3
1.37826,-6.04307,8.22293,1.83509,-4.86394,-2.29402,3
1.38425,-5.30369,8.10927,30.5612,-2.06395,-1.41902,3
1.40459,-5.25105,8.01117,54.4837,1.20854,-0.115277,3
1.41775,-5.38983,7.97767,76.6211,4.85728,1.29347,3
1.45125,-5.37906,7.96331,99.1698,8.75977,2.40472,3
1.47278,-5.22353,8.06859,122.331,12.1723,3.26221,3
1.44766,-4.92084,8.24925,145.553,15.821,3.76971,3
1.42134,-4.43629,8.48853,165.67,18.9622,4.06721,3
1.22752,-1.97527,9.50189,178.506,22.9697,3.09596,3
1.13539,-1.18564,9.87996,160.603,21.6485,2.28222,3
1.07198,-0.604187,10.1671,132.253,19.0497,1.31972,3
1.01216,-0.252443,10.3597,96.186,15.1823,0.260972,3
0.93679,-0.0478564,10.4794,55.2012,10.7898,-0.990275,3
0.89013,-0.11007,10.5727,14.61,5.94228,-2.13652,3
0.906879,-0.455832,10.5595,-21.0636,1.60229,-3.34402,3
0.92004,-0.684347,10.6122,-52.371,-2.5802,-4.57776,3
0.90329,-0.798006,10.5691,-80.6597,-7.12143,-6.09151,3
0.865005,-0.849451,10.4399,-107.715,-11.0852,-6.96651,3
0.94995,-1.85085,9.68614,-167.424,-19.8789,-5.64526,3
1.05284,-2.65125,9.42891,-177.111,-21.3926,-4.28027,3
1.14377,-3.43489,9.20518,-178.747,-22.0664,-2.95902,3
1.21436,-4.29272,8.97069,-170.294,-21.6289,-1.73402,3
1.267,-5.05244,8.74217,-152.103,-20.0889,-0.640275,3
1.34835,-5.74636,8.55075,-125.197,-17.4464,0.260972,3
1.42014,-6.3314,8.38325,-90.9409,-14.0689,0.750971,3
1.45962,-6.70588,8.21336,-53.1585,-10.6477,0.88222,3
1.54576,-7.334,8.12004,-10.6424,-6.46518,0.99597,3
1.55533,-7.41176,8.02552,35.6537,-1.60895,1.74847,3
1.59242,-5.4664,7.80299,159.921,11.8748,3.03471,3
1.55653,-4.4315,7.98365,184.605,15.8823,3.05221,3
1.49192,-3.25902,8.29352,194.466,18.3147,2.63222,3
1.42014,-1.82692,8.85224,184.097,18.9797,1.74847,3
1.267,0.223729,9.73519,142.841,16.9235,-0.465276,3
1.10429,1.08275,10.1216,82.1511,13.4323,-2.13652,3
1.03848,0.739382,10.0403,18.4425,10.1948,-1.99652,3
1.11984,-0.120837,9.73041,-39.2985,6.83478,-2.11902,3
1.1007,-1.32562,9.72921,-86.1196,2.38104,-2.67902,3
1.0983,-3.18484,9.79262,-109.36,-1.2852,-2.70527,3
1.20239,-5.24267,9.76391,-67.6484,-2.72894,-2.69652,3
1.15932,-5.2989,9.61316,-33.5148,-1.53895,-2.30277,3
1.13898,-4.99741,9.42173,1.86133,-0.121452,-1.58527,3
1.12821,-4.51047,9.29372,32.6962,1.12979,-0.701525,3
1.14616,-4.11087,9.22432,58.9812,2.78354,0.392222,3
1.15334,-3.56411,9.24586,78.1436,4.44604,1.51222,3
1.14855,-3.11426,9.21356,90.0786,5.88103,2.56221,3
1.12463,-2.7649,9.15254,95.556,7.15853,3.37596,3
1.1318,-2.48853,9.15374,95.6261,8.25227,3.82221,3
1.10788,-2.17148,9.22672,90.6123,8.90852,3.92721,3
1.10309,-1.58883,9.6323,54.6587,8.72477,4.29471,3
1.0983,-1.60199,9.75553,39.5125,8.02477,4.15471,3
1.09352,-1.7348,9.8656,24.9963,6.77353,3.75221,3
1.10189,-1.85324,9.93499,12.7376,5.46978,3.02596,3
1.08993,-1.97886,9.99003,3.41008,4.13979,2.40472,3
1.08754,-2.21097,10.0128,-2.1724,2.87104,1.68722,3
1.07557,-2.42153,10.0283,-4.3074,1.58479,0.90847,3
1.04327,-2.53639,10.0463,-3.82615,0.753546,0.243472,3
1.02891,-2.52323,10.0295,-1.67365,0.0360475,-0.404026,3
1.01336,-2.43589,9.98405,1.08259,-0.480201,-0.771525,3
0.954736,-2.14636,9.76391,3.41883,-1.5827,-1.18277,3
0.952343,-2.05424,9.70289,2.43008,-1.81895,-1.06027,3
0.94995,-2.04706,9.65982,1.68634,-1.67895,-0.850275,3
0.961914,-2.02672,9.64067,1.29259,-1.27645,-0.552776,3
0.977468,-2.04227,9.62871,1.30134,-0.73395,-0.281527,3
0.999003,-2.06022,9.61316,1.14384,-0.278951,-0.0540272,3
1.03609,-2.08295,9.62392,1.03884,-0.0164523,0.138472,3
1.05164,-2.08654,9.6658,1.16134,0.403547,0.488471,3
1.07438,-2.0662,9.71605,1.17009,0.666046,0.89972,3
1.066,-2.08774,9.70289,0.846337,0.779796,1.15347,3
1.06481,-2.18584,9.85005,1.00384,0.289797,1.39847,3
1.06959,-2.18824,9.84526,1.38009,-0.0427017,1.33722,3
1.04925,-2.21097,9.81655,1.47634,-0.287702,1.17097,3
1.03609,-2.20259,9.82851,1.44134,-0.47145,0.86472,3
1.03729,-2.17507,9.84287,1.07384,-0.66395,0.610971,3
0,0,0,0,0,0,3
0,0,0,0,0,0,3
0,0,0,0,0,0,3
0,0,0,0,0,0,3
0,0,0,0,0,0,3
0,0,0,0,0,0,3
0,0,0,0,0,0,3
0,0,0,0,0,0,3
0,0,0,0,0,0,3
0,0,0,0,0,0,3
0,0,0,0,0,0,3
0,0,0,0,0,0,3
0,0,0,0,0,0,3
0,0,0,0,0,0,3
0,0,0,0,0,0,3
0,0,0,0,0,0,3
0,0,0,0,0,0,3
0,0,0,0,0,0,3
0,0,0,0,0,0,3
0,0,0,0,0,0,3
0,0,0,0,0,0,3
0,0,0,0,0,0,3
0,0,0,0,0,0,3
0,0,0,0,0,0,3
0,0,0,0,0,0,3
0,0,0,0,0,0,3
0,0,0,0,0,0,3
0,0,0,0,0,0,3
0,0,0,0,0,0,3
0,0,0,0,0,0,3
0,0,0,0,0,0,3
0,0,0,0,0,0,3
0,0,0,0,0,0,3
0,0,0,0,0,0,3
0,0,0,0,0,0,3
0,0,0,0,0,0,3
0,0,0,0,0,0,3
1.03011,-1.80538,9.86919,22.3363,1.38354,0.199722,3
1.0325,-1.61755,9.83689,19.4488,1.06854,0.103472,3
1.03011,-1.46441,9.82253,14.4001,0.648546,-0.132777,3
1.02173,-1.40937,9.80578,7.80257,0.0710478,-0.351526,3
1.03131,-1.44287,9.77467,0.907588,-0.453951,-0.570276,3
1.03968,-1.42732,9.73639,-5.96114,-1.17145,-0.789025,3
1.04327,-1.00259,9.83928,-17.0649,-2.20395,-1.30527,3
0.995414,0.0646062,10.0941,-42.7985,-4.90769,-2.53027,3
0.888933,0.99661,10.1719,-85.7259,-9.35268,-3.77277,3
0.874576,1.07916,10.0965,-138.322,-15.0227,-3.57152,3
1.133,-2.31505,9.52582,-282.521,-30.5364,-2.97652,3
1.43689,-3.97807,9.12741,-288.165,-33.8964,-1.56777,3
1.56371,-5.28694,8.95513,-287.85,-34.8851,-0.229027,3
1.56012,-5.86121,8.79123,-278.829,-35.6988,0.330972,3
1.5661,-6.74536,8.51007,-252.772,-34.9988,0.400972,3
1.48594,-7.19043,8.19182,-219.504,-33.0301,0.392222,3
1.44526,-7.26101,7.91665,-184.627,-30.7201,-0.237777,3
1.46082,-7.31605,7.5661,-148.953,-28.0864,-0.657775,3
1.46919,-7.19761,7.2323,-115.73,-25.0939,-1.07777,3
1.50987,-7.20957,7.00857,-83.4684,-21.6201,-1.34902,3
1.81017,-8.34496,6.19621,29.8175,-2.87769,-0.299026,3
1.88315,-8.90967,5.98325,79.5174,3.53604,0.479721,3
1.89033,-8.93958,5.91745,133.793,9.72227,1.78347,3
1.90708,-8.13799,6.05384,183.45,14.001,2.34347,3
1.86401,-7.25623,6.25603,230.909,19.7672,3.06971,3
1.76829,-6.17946,6.51804,270.678,26.286,3.92721,3
1.68455,-4.96032,6.95115,284.949,31.396,4.45221,3
1.60678,-3.93619,7.56849,285.203,35.2722,4.53096,3
1.53978,-3.25663,8.09252,285.203,38.3959,4.60096,3
1.46201,-2.19302,8.74576,285.203,39.4459,4.36471,3
1.17727,1.84247,10.8407,194.116,28.771,2.99096,3
0.935593,2.85942,11.415,113.082,20.6335,2.08097,3
0.709471,3.27338,11.5944,20.9188,10.536,0.295972,3
0.798006,3.23031,11.3396,-71.1397,0.482297,-2.79277,3
0.848255,2.68475,11.0883,-159.576,-10.1839,-5.08526,3
1.00379,0.683151,10.8096,-231.133,-20.0539,-5.97776,3
1.08036,-1.45603,10.4148,-276.668,-27.1064,-6.18776,3
1.18205,-3.06042,9.87756,-288.095,-32.5664,-5.19026,3
1.24786,-4.55474,9.3332,-287.955,-35.2351,-4.01777,3
1.26939,-5.66979,8.91087,-276.327,-35.3838,-3.29152,3
1.31486,-5.98923,8.08414,-171.388,-29.4776,-4.01777,3
1.40459,-5.84447,7.8329,-145.094,-27.0451,-3.96526,3
1.45125,-4.79282,7.68096,-137.99,-26.1264,-3.70277,3
1.54696,-4.31545,7.41416,-142.032,-25.6364,-1.89152,3
1.55653,-4.31186,7.15932,-154.684,-25.1201,0.93472,3
1.72283,-4.94716,6.90449,-167.372,-24.5251,3.03471,3
1.83649,-6.3326,6.66999,-167.949,-21.9701,4.82846,3
1.91545,-7.7659,6.49053,-155.848,-18.6626,5.23096,3
1.94776,-8.86061,6.33499,-129.143,-14.2439,5.06471,3
2.03868,-9.81894,6.1986,-88.2896,-8.94143,4.11971,3
2.15115,-12.3685,5.06799,160.796,18.1485,1.31097,3
2.0985,-10.9352,5.17328,241.296,20.9922,-2.10152,3
1.95374,-9.32482,5.33121,283.418,25.9272,-3.93027,3
1.86879,-6.70469,5.58365,285.203,30.416,-4.12276,3
1.82931,-4.39083,6.02871,285.203,35.6397,-3.58027,3
1.71924,-2.85822,6.74177,285.203,40.8722,-2.36402,3
1.54815,-1.61874,7.62114,285.203,44.7484,-1.78652,3
1.38305,-0.141176,8.80678,285.203,45.0022,-2.19777,3
1.18564,1.85683,9.99362,284.652,41.0384,-4.67401,3
1.05164,3.96969,10.8957,243.816,34.9922,-7.474,3
0.830309,3.93858,10.2963,-102.823,7.41228,-6.37151,3
0.952343,1.67497,10.258,-187.584,-3.09644,-6.23151,3
1.03729,-0.608973,10.2664,-242.902,-11.1202,-6.43276,3
1.1342,-2.70987,10.197,-266.868,-17.1227,-5.99526,3
1.15214,-4.11804,10.142,-266.247,-20.9289,-5.14651,3
1.13061,-4.72702,9.91465,-251.109,-23.9739,-4.54276,3
1.15334,-4.89332,9.7005,-230.127,-25.5226,-3.44902,3
1.133,-4.55832,9.44686,-214.307,-27.3514,-2.99402,3
1.18325,-4.51047,9.21236,-202.932,-29.1014,-2.40777,3
1.26939,-4.5679,8.84745,-196.824,-30.5976,-1.25277,3
1.59003,-6.31226,7.64387,-179.832,-30.7376,2.07222,3
1.69412,-7.12223,7.2646,-159.759,-28.4451,2.41347,3
1.76351,-7.73599,6.99781,-131.523,-24.9364,2.27347,3
1.81017,-8.37607,6.7334,-94.9396,-20.4389,1.71347,3
1.8676,-8.98026,6.52762,-49.3523,-14.3314,1.13597,3
1.92263,-9.90389,6.15434,10.0776,-5.20519,0.540971,3
2.05065,-11.6985,5.42213,98.5048,7.04478,1.17097,3
2.02193,-11.5166,5.27617,191.902,14.7098,1.95847,3
1.94776,-9.69571,5.44845,266.189,20.1522,0.120972,3
1.87358,-7.4991,5.67936,285.185,25.6385,-1.87402,3
1.88435,-1.94776,7.25862,285.203,44.4859,-3.35277,3
1.68215,-0.0681954,8.45384,285.203,44.5122,-4.10526,3
1.41775,2.53041,10.0307,281.615,40.2947,-7.09776,3
1.16411,4.9663,11.275,208.457,32.9272,-10.4927,3
0.927218,5.09192,11.1314,79.4211,24.3697,-10.589,3
0.999003,3.71725,10.3478,-30.3298,16.5472,-7.7715,3
1.05404,1.76351,10.1109,-112.912,7.93728,-6.02151,3
1.01815,-0.294317,10.2341,-166.278,-0.138952,-6.23151,3
1.1007,-2.40718,10.3801,-186.639,-5.54644,-6.49401,3
1.15693,-4.04506,10.4136,-178.528,-7.74268,-6.59026,3
1.12104,-5.18644,9.91346,-50.9973,-5.07394,-3.02027,3
1.14736,-4.94118,9.54975,1.82634,-2.79019,-1.36652,3
1.11864,-4.02114,9.38584,45.3137,-0.6552,0.00722265,3
1.10788,-3.10468,9.27338,76.5161,1.74229,1.62597,3
1.10189,-2.28634,9.25902,92.1086,3.63229,3.25346,3
1.11147,-1.74078,9.28175,94.121,4.36728,4.43471,3
1.12104,-1.38544,9.29731,86.4736,4.90978,5.48471,3
1.13539,-1.04207,9.32004,70.6011,5.20728,6.27221,3
1.17009,-0.875773,9.37148,48.8049,5.26853,6.66595,3
1.19282,-0.971485,9.44806,23.5875,4.77853,6.8147,3
1.35314,-2.46939,9.5318,-28.1336,3.61479,5.98346,3
1.39023,-2.90728,9.58923,-30.2773,3.49229,5.36221,3
1.39382,-3.22433,9.65862,-25.4736,3.69354,4.73221,3
1.3998,-3.39182,9.72203,-16.2599,4.04354,3.94471,3
1.35434,-3.36909,9.77467,-5.26114,4.56853,3.10471,3
1.31605,-3.18006,9.8321,4.27633,4.70853,2.15097,3
1.24427,-2.97428,9.86799,10.8476,4.24479,1.07472,3
1.18684,-2.82233,9.85244,15.4238,4.06104,0.173472,3
1.133,-2.57348,9.85244,16.6575,3.49229,-0.771525,3
1.09232,-2.39162,9.84048,15.0038,2.48604,-1.58527,3
1.00498,-2.08654,9.75912,4.72258,0.438547,-3.09902,3
0.99661,-2.0674,9.74476,1.71259,0.141047,-3.09902,3
0.987039,-2.065,9.71844,-0.0199094,0.167298,-2.81902,3
0.994217,-2.09133,9.71127,-0.326159,0.342297,-2.44277,3
1.01575,-2.14636,9.70169,0.17259,0.316047,-1.94402,3
1.02532,-2.0985,9.72323,1.57259,0.508546,-1.41902,3
1.04327,-2.00997,9.73041,3.30508,0.692296,-0.666526,3
1.04566,-1.9669,9.73041,4.06633,0.613546,0.112222,3
1.06122,-1.96211,9.75792,3.97883,0.438547,0.698471,3
1.08873,-1.92861,9.80698,3.33133,0.228548,1.29347,3
1.11505,-2.11884,9.80937,-0.719907,-0.73395,2.48347,3
1.14257,-2.20259,9.84048,-1.44616,-1.04895,2.61472,3
1.15813,-2.22891,9.85962,-1.43741,-1.27645,2.62346,3
1.16411,-2.26361,9.82612,-1.17491,-1.46895,2.60596,3
1.15214,-2.32463,9.75434,-1.17491,-1.62645,2.39597,3
1.15214,-2.35573,9.72323,-1.06991,-1.83645,2.10722,3
1.15334,-2.35095,9.71725,-0.807407,-1.6177,1.73972,3
1.14855,-2.34138,9.67418,-0.667408,-1.5652,1.49472,3
1.16171,-2.41555,9.61675,-0.886157,-1.57395,1.19722,3
1.1665,-2.44666,9.61795,-0.877407,-1.3727,0.79472,3
1.16171,-2.34377,9.63708,1.25759,-0.0689521,0.129722,3
0,0,0,0,0,0,3
0,0,0,0,0,0,3
0,0,0,0,0,0,3
0,0,0,0,0,0,3
0,0,0,0,0,0,3
0,0,0,0,0,0,3
0,0,0,0,0,0,3
0,0,0,0,0,0,3
0,0,0,0,0,0,3
0,0,0,0,0,0,3
0,0,0,0,0,0,3
0,0,0,0,0,0,3
0,0,0,0,0,0,3
0,0,0,0,0,0,3
0,0,0,0,0,0,3
0,0,0,0,0,0,3
0,0,0,0,0,0,3
0,0,0,0,0,0,3
0,0,0,0,0,0,3
0,0,0,0,0,0,3
0,0,0,0,0,0,3
0,0,0,0,0,0,3
0,0,0,0,0,0,3
0,0,0,0,0,0,3
0,0,0,0,0,0,3
0,0,0,0,0,0,3
0,0,0,0,0,0,3
0,0,0,0,0,0,3
0,0,0,0,0,0,3
0,0,0,0,0,0,3
0,0,0,0,0,0,3
0,0,0,0,0,0,3
0,0,0,0,0,0,3
0,0,0,0,0,0,3
0,0,0,0,0,0,3
0,0,0,0,0,0,3
0,0,0,0,0,0,3
0,0,0,0,0,0,3
0,0,0,0,0,0,3
0,0,0,0,0,0,3
0,0,0,0,0,0,3
0,0,0,0,0,0,3
0,0,0,0,0,0,3
0,0,0,0,0,0,3
0,0,0,0,0,0,3
0,0,0,0,0,0,3
0,0,0,0,0,0,3
0,0,0,0,0,0,3
0,0,0,0,0,0,3
0,0,0,0,0,0,3
0,0,0,0,0,0,3
0,0,0,0,0,0,3
0,0,0,0,0,0,3
0,0,0,0,0,0,3
0,0,0,0,0,0,3
0,0,0,0,0,0,3
0,0,0,0,0,0,3
0,0,0,0,0,0,3
0,0,0,0,0,0,3
0,0,0,0,0,0,3
0,0,0,0,0,0,3
0,0,0,0,0,0,3
0,0,0,0,0,0,3
0,0,0,0,0,0,3
0,0,0,0,0,0,3
0,0,0,0,0,0,3
0,0,0,0,0,0,3
0,0,0,0,0,0,3
0,0,0,0,0,0,3
0.932004,-0.181854,10.0056,-37.9073,-4.72394,-0.902775,1
0.912861,0.568295,10.1336,-78.1309,-9.42268,-1.53277,1
0.849451,0.713061,10.1252,-131.226,-15.7752,-2.29402,1
0.900897,-0.149551,9.93978,-182.413,-22.1451,-1.31402,1
1.18445,-1.37946,9.62153,-223.354,-26.3801,-0.0540272,1
1.34477,-3.25065,9.31884,-244.949,-29.0489,1.00472,1
1.40817,-4.81675,9.12263,-244.529,-30.1689,1.54722,1
1.42134,-5.43888,8.69073,-183.314,-28.5151,3.00846,1
1.28255,-4.61216,8.61894,-175.588,-28.5764,3.21846,1
1.20957,-4.35852,8.39521,-175.413,-29.1539,4.41721,1
1.22393,-4.34895,8.11765,-181.276,-29.4776,6.4822,1
1.27657,-4.58105,7.85443,-193.141,-30.5714,8.04845,1
1.33878,-5.52981,7.47876,-200.167,-30.6589,9.53594,1
1.42971,-6.5982,7.10907,-198.784,-29.5039,10.2447,1
1.55533,-7.49432,6.75613,-187.952,-27.7364,10.0347,1
1.61755,-7.96331,6.5659,-169.568,-25.2251,9.49219,1
1.66899,-8.04826,6.35892,-150.344,-23.1251,8.36345,1
1.68215,-7.30528,6.02393,-104.652,-18.4001,6.49096,1
1.73001,-6.99781,5.91505,-108.677,-18.5051,6.89345,1
1.77787,-7.03489,5.74756,-116.92,-18.2864,8.2322,1
1.89153,-7.6331,5.52263,-121.855,-17.8139,9.13344,1
1.95374,-8.51485,5.25942,-118.39,-16.4489,9.13344,1
1.95494,-9.24825,5.07996,-107.513,-14.5064,7.6897,1
2.00997,-9.71964,4.94237,-89.9696,-12.3277,5.57221,1
2.0315,-9.96969,4.79641,-65.9859,-9.55392,3.35846,1
2.01715,-9.95892,4.70189,-38.7298,-6.68393,1.55597,1
2.00399,-9.91585,4.62054,-9.22488,-3.37644,0.470971,1
1.92263,-9.84766,4.40399,95.4423,9.66102,-0.351526,1
1.90947,-9.94696,4.42552,136.121,14.2198,-0.439026,1
1.87597,-9.98285,4.55593,181.437,19.356,-0.316526,1
1.82572,-9.60479,4.71386,226.823,24.2122,-0.132777,1
1.68814,-8.48016,5.16371,263.039,28.0097,-0.587776,1
1.56132,-6.64606,5.65783,278.745,29.7947,-1.65527,1
1.54457,-5.33479,6.28115,278.203,31.396,-1.89152,1
1.46321,-4.14437,7.10668,257.081,32.4197,-1.59402,1
1.41176,-3.17767,7.85443,217.294,31.5885,-1.39277,1
1.39023,-3.1346,8.33659,169.511,29.0685,-0.876525,1
1.34835,-4.95793,9.15852,46.5999,18.0522,-1.79527,1
1.34357,-5.74756,9.25184,32.5475,15.681,-3.28277,1
1.32203,-6.24766,9.25064,32.9237,13.686,-4.90151,1
1.30887,-6.47258,9.25304,43.2487,12.0673,-6.29276,1
1.27178,-6.44267,9.18963,61.0374,10.9735,-7.334,1
1.22632,-6.15912,9.07358,82.4923,10.3173,-8.02525,1
1.21555,-5.73679,8.96112,104.394,10.0198,-8.2265,1
1.20239,-5.21874,8.87378,124.457,10.151,-7.999,1
1.17846,-4.63131,8.80558,140.47,10.676,-7.439,1
1.14496,-4.14676,8.78883,150.497,10.5885,-6.58151,1
1.08634,-2.51844,8.95753,147.225,10.9298,-3.42277,1
1.09352,-2.13559,9.11784,134.791,10.2385,-2.23277,1
1.10668,-1.80179,9.31884,117.676,9.59102,-1.26152,1
1.13539,-1.53619,9.48514,97.3323,8.87352,-0.342777,1
1.13779,-1.34237,9.61436,75.0286,8.07727,0.409721,1
1.14496,-1.28495,9.67537,51.6837,6.93978,0.86472,1
1.16171,-1.41296,9.72682,29.555,5.42603,1.16222,1
1.16052,-1.68933,9.75912,9.92006,3.78104,1.29347,1
1.15932,-2.07338,9.78305,-5.19114,2.27604,1.34597,1
1.1653,-2.51126,9.77587,-13.5736,1.24354,1.45972,1
1.14377,-3.2339,9.79501,-7.15989,-0.7427,1.45972,1
1.10548,-3.18843,9.77826,0.242589,-0.75145,1.24972,1
1.08873,-2.98983,9.74237,6.08757,-0.908949,0.96972,1
1.07677,-2.82353,9.67418,9.39506,-0.987699,0.698471,1
1.08754,-2.69791,9.60837,10.1476,-1.17145,0.462221,1
1.10788,-2.59621,9.54496,8.97507,-1.0752,0.295972,1
1.12343,-2.57826,9.50668,6.46382,-1.0402,0.103472,1
1.13539,-2.56869,9.47198,3.62008,-0.96145,-0.0102773,1
1.15214,-2.60698,9.46121,1.02134,-0.5502,-0.106527,1
1.1665,-2.69432,9.4684,-0.632408,-0.217701,-0.106527,1
1.17129,-2.78524,9.50428,1.03884,1.01605,0.0334725,1
1.1665,-2.74337,9.55095,2.30758,1.38354,0.0422225,1
1.16291,-2.6656,9.58086,2.78008,1.56729,-0.0102773,1
1.16411,-2.69791,9.58923,2.53508,1.60229,0.0159726,1
1.16171,-2.69192,9.60479,1.91384,1.35729,-0.0365272,1
1.14018,-2.66082,9.63828,1.17884,1.32229,-0.0277772,1
1.13539,-2.67398,9.63469,0.53134,0.919795,0.0159726,1
1.13539,-2.71465,9.64187,0.11134,0.456047,-0.124027,1
1.12582,-2.71107,9.67418,0.0938401,0.281048,-0.421526,1
1.13061,-2.66441,9.68016,0.13759,0.228548,-0.649025,1
1.12104,-2.66201,9.62034,0.33884,-0.086452,-0.937775,1
1.0983,-2.62612,9.6335,0.881338,0.0447979,-0.859025,1
1.0983,-2.62373,9.60598,1.20509,0.141047,-0.710275,1
1.10788,-2.60818,9.57727,1.28384,0.289797,-0.622776,1
1.11266,-2.56989,9.57009,1.22259,0.491046,-0.517776,1
1.10788,-2.53759,9.57248,0.951338,0.779796,-0.290277,1
1.11745,-2.55314,9.54257,0.382589,0.946045,-0.0190272,1
0,0,0,0,0,0,1
0,0,0,0,0,0,1
0,0,0,0,0,0,1
0,0,0,0,0,0,1
0,0,0,0,0,0,1
0,0,0,0,0,0,1
0,0,0,0,0,0,1
0,0,0,0,0,0,1
0,0,0,0,0,0,1
0,0,0,0,0,0,1
0,0,0,0,0,0,1
0,0,0,0,0,0,1
0,0,0,0,0,0,1
0,0,0,0,0,0,1
0,0,0,0,0,0,1
0,0,0,0,0,0,1
0,0,0,0,0,0,1
0,0,0,0,0,0,1
0,0,0,0,0,0,1
0,0,0,0,0,0,1
0,0,0,0,0,0,1
0,0,0,0,0,0,1
0,0,0,0,0,0,1
0,0,0,0,0,0,1
0,0,0,0,0,0,1
0,0,0,0,0,0,1
0,0,0,0,0,0,1
0,0,0,0,0,0,1
0,0,0,0,0,0,1
0,0,0,0,0,0,1
0,0,0,0,0,0,1
0,0,0,0,0,0,1
0,0,0,0,0,0,1
0,0,0,0,0,0,1
0,0,0,0,0,0,1
0,0,0,0,0,0,1
0,0,0,0,0,0,1
0,0,0,0,0,0,1
0,0,0,0,0,0,1
0,0,0,0,0,0,1
0,0,0,0,0,0,1
0,0,0,0,0,0,1
0,0,0,0,0,0,1
0,0,0,0,0,0,1
0,0,0,0,0,0,1
0,0,0,0,0,0,1
0,0,0,0,0,0,1
0,0,0,0,0,0,1
0,0,0,0,0,0,1
0,0,0,0,0,0,1
0,0,0,0,0,0,1
0,0,0,0,0,0,1
0,0,0,0,0,0,1
0,0,0,0,0,0,1
0,0,0,0,0,0,1
0,0,0,0,0,0,1
0,0,0,0,0,0,1
0,0,0,0,0,0,1
0,0,0,0,0,0,1
0,0,0,0,0,0,1
0,0,0,0,0,0,1
0,0,0,0,0,0,1
0,0,0,0,0,0,1
0,0,0,0,0,0,1
0,0,0,0,0,0,1
0,0,0,0,0,0,1
0,0,0,0,0,0,1
0,0,0,0,0,0,1
0,0,0,0,0,0,1
0,0,0,0,0,0,1
0,0,0,0,0,0,1
0,0,0,0,0,0,1
0,0,0,0,0,0,1
0,0,0,0,0,0,1
0,0,0,0,0,0,1
0,0,0,0,0,0,1
0,0,0,0,0,0,1
0,0,0,0,0,0,1
0,0,0,0,0,0,1
0,0,0,0,0,0,1
0,0,0,0,0,0,1
0,0,0,0,0,0,1
0,0,0,0,0,0,1
0,0,0,0,0,0,1
0,0,0,0,0,0,1
0,0,0,0,0,0,1
0,0,0,0,0,0,1
0,0,0,0,0,0,1
0,0,0,0,0,0,1
0,0,0,0,0,0,1
0,0,0,0,0,0,1
0,0,0,0,0,0,1
0,0,0,0,0,0,1
0,0,0,0,0,0,1
0,0,0,0,0,0,1
0,0,0,0,0,0,1
0,0,0,0,0,0,1
0,0,0,0,0,0,1
0,0,0,0,0,0,1
0,0,0,0,0,0,1
0,0,0,0,0,0,1
0,0,0,0,0,0,1
0,0,0,0,0,0,1
0,0,0,0,0,0,1
0,0,0,0,0,0,1
0,0,0,0,0,0,1
0,0,0,0,0,0,1
0,0,0,0,0,0,1
0,0,0,0,0,0,1
0,0,0,0,0,0,1
0,0,0,0,0,0,1
0,0,0,0,0,0,1
0,0,0,0,0,0,1
0,0,0,0,0,0,1
0,0,0,0,0,0,1
0,0,0,0,0,0,1
1.03968,-0.994217,9.78305,-38.1523,-5.29269,-1.24402,1
1.08395,-0.527617,9.99601,-71.5947,-9.10768,-1.75152,1
0.988235,-0.118445,10.1228,-117.733,-14.6289,-2.60902,1
1.03131,-0.995414,9.86321,-161.317,-19.7126,-1.88277,1
1.26102,-2.4993,9.5007,-192.764,-23.0114,-1.05152,1
1.47876,-5.9653,8.85583,-182.142,-24.2539,0.549721,1
1.41655,-5.92463,8.8319,-155.472,-22.8014,0.575971,1
1.34118,-5.14457,8.91685,-138.488,-22.3376,0.672221,1
1.32443,-4.32383,8.73499,-136.108,-22.9939,0.304722,1
1.32084,-4.04267,8.45862,-139.503,-22.9239,1.69597,1
1.3328,-4.02472,8.16909,-150.24,-23.0814,3.18346,1
1.40459,-4.27597,7.96211,-166.138,-24.0176,4.47846,1
1.46441,-4.97587,7.68813,-180.812,-24.4201,5.93095,1
1.5649,-5.97607,7.3663,-185.826,-23.8776,6.9547,1
1.63789,-6.9667,7.05284,-178.143,-21.7426,7.87345,1
1.71924,-8.42991,6.40439,-102.893,-12.4327,6.36845,1
1.74556,-8.51964,6.26082,-69.6784,-8.88017,5.24846,1
1.75155,-8.3665,6.18664,-37.9773,-5.73894,4.49596,1
1.7659,-7.97767,6.22373,-11.9199,-2.86894,4.17221,1
1.77428,-7.52303,6.29671,5.72882,-0.996449,4.39971,1
1.78983,-7.00618,6.37807,13.1751,0.447297,4.48721,1
1.8329,-6.90209,6.40917,16.325,2.16229,5.03846,1
1.81496,-6.98584,6.47737,16.115,3.65854,5.16971,1
1.79222,-7.20718,6.56112,15.3625,5.06728,4.73221,1
1.77547,-7.54696,6.64965,16.6925,6.49353,3.96221,1
1.71087,-8.17387,6.89731,40.4225,9.58227,0.74222,1
1.68455,-8.31745,6.91047,57.6512,10.8073,0.112222,1
1.65344,-8.47058,6.93679,81.5474,12.426,-0.395276,1
1.62831,-8.467,6.96431,111.779,14.0973,-1.09527,1
1.57089,-8.23609,7.00618,146.595,16.0485,-1.82152,1
1.48594,-7.7659,7.12702,181.63,18.726,-2.53902,1
1.40219,-7.14137,7.25982,213.821,21.211,-3.09027,1
1.32323,-6.3649,7.50748,240.289,23.7835,-3.26527,1
1.25623,-5.39103,7.79701,258.358,26.1635,-3.44027,1
1.22632,-4.39681,8.10209,267.143,27.8785,-3.26527,1
1.17248,-2.05902,9.23629,226.307,25.7347,-3.01152,1
1.11745,-1.26341,9.59641,193.844,23.4072,-3.23902,1
1.07318,-0.812363,9.84048,154.085,19.8197,-3.37027,1
1.0672,-0.784845,10.0379,110.781,15.3748,-3.66777,1
1.02532,-0.80638,10.1755,69.2624,11.1748,-4.08776,1
1.02772,-0.967896,10.2831,32.6875,7.01853,-4.42901,1
1.05643,-1.38425,10.2963,3.78633,3.07229,-4.85776,1
1.11027,-2.12483,10.215,-12.9874,0.219797,-5.07651,1
1.11266,-2.75055,10.1073,-17.7736,-1.4427,-5.23401,1
1.11864,-3.07477,9.9661,-14.1249,-2.61519,-5.18151,1
1.08514,-2.79003,9.5653,17.795,-2.94769,-2.98527,1
1.10309,-2.48375,9.47198,25.6,-2.3527,-1.68152,1
1.09352,-2.19541,9.40857,29.59,-1.8277,-0.447776,1
1.07557,-2.05424,9.40379,29.1,-1.36395,0.488471,1
1.09352,-1.91067,9.4325,24.8738,-1.2152,1.17972,1
1.11266,-1.83051,9.45523,18.32,-0.821449,1.77472,1
1.14018,-1.84128,9.48514,10.1213,-0.410201,2.24722,1
1.14257,-1.97647,9.50787,1.41509,-0.217701,2.53596,1
1.16411,-2.22173,9.51984,-5.36614,0.123548,2.66721,1
1.18445,-2.47418,9.55095,-9.38238,0.596046,2.73722,1
1.23948,-2.95274,9.67657,-6.61739,1.33104,1.85347,1
1.24068,-2.98624,9.67418,-3.4499,1.33979,1.39847,1
1.21914,-2.93958,9.66819,-0.527408,1.05979,0.96097,1
1.20718,-2.85105,9.64786,1.35384,0.674796,0.575971,1
1.19162,-2.73021,9.67059,2.24633,0.263547,0.138472,1
1.17607,-2.63091,9.71485,2.49133,0.0710478,-0.255277,1
1.14138,-2.56151,9.7316,1.69509,-0.243951,-0.701525,1
1.12223,-2.56271,9.71127,0.645088,-0.331451,-1.10402,1
1.10668,-2.57826,9.70289,-0.229909,-0.497701,-1.57652,1
1.10788,-2.54955,9.69691,-0.623658,-0.59395,-1.78652,1
1.10668,-2.49691,9.57727,0.19884,-0.252701,-1.75152,1
1.11386,-2.42393,9.58205,0.837588,-0.0252018,-1.46277,1
1.11386,-2.38923,9.57727,1.32759,0.342297,-1.07777,1
1.11147,-2.34377,9.5677,1.24009,0.517296,-0.666526,1
1.11864,-2.38684,9.6012,0.933838,0.552296,-0.290277,1
1.12343,-2.38923,9.66221,0.645088,0.718546,0.0159726,1
1.14257,-2.40359,9.70409,0.15509,0.718546,0.225972,1
1.14975,-2.44905,9.72443,-0.378659,0.718546,0.444721,1
1.15454,-2.51366,9.75075,-0.676158,0.534796,0.558471,1
1.15573,-2.52682,9.7675,-0.571158,0.324797,0.619721,1
1.10907,-2.56032,9.70169,-0.0374093,-0.576451,0.488471,1
0,0,0,0,0,0,1
0,0,0,0,0,0,1
0,0,0,0,0,0,1
0,0,0,0,0,0,1
0,0,0,0,0,0,1
0,0,0,0,0,0,1
0,0,0,0,0,0,1
0,0,0,0,0,0,1
0,0,0,0,0,0,1
0,0,0,0,0,0,1
0,0,0,0,0,0,1
0,0,0,0,0,0,1
0,0,0,0,0,0,1
0,0,0,0,0,0,1
0,0,0,0,0,0,1
0,0,0,0,0,0,1
0,0,0,0,0,0,1
0,0,0,0,0,0,1
0,0,0,0,0,0,1
0,0,0,0,0,0,1
0,0,0,0,0,0,1
0,0,0,0,0,0,1
0,0,0,0,0,0,1
0,0,0,0,0,0,1
0,0,0,0,0,0,1
0,0,0,0,0,0,1
0,0,0,0,0,0,1
0,0,0,0,0,0,1
0,0,0,0,0,0,1
0,0,0,0,0,0,1
0,0,0,0,0,0,1
0,0,0,0,0,0,1
0,0,0,0,0,0,1
0,0,0,0,0,0,1
0,0,0,0,0,0,1
0,0,0,0,0,0,1
0,0,0,0,0,0,1
0,0,0,0,0,0,1
0,0,0,0,0,0,1
0,0,0,0,0,0,1
0,0,0,0,0,0,1
0,0,0,0,0,0,1
0,0,0,0,0,0,1
0,0,0,0,0,0,1
0,0,0,0,0,0,1
0,0,0,0,0,0,1
0,0,0,0,0,0,1
0,0,0,0,0,0,1
0,0,0,0,0,0,1
0,0,0,0,0,0,1
0,0,0,0,0,0,1
0,0,0,0,0,0,1
0,0,0,0,0,0,1
0,0,0,0,0,0,1
0,0,0,0,0,0,1
0,0,0,0,0,0,1
0,0,0,0,0,0,1
0,0,0,0,0,0,1
0,0,0,0,0,0,1
0,0,0,0,0,0,1
0,0,0,0,0,0,1
0,0,0,0,0,0,1
0,0,0,0,0,0,1
0,0,0,0,0,0,1
0,0,0,0,0,0,1
0,0,0,0,0,0,1
0,0,0,0,0,0,1
0,0,0,0,0,0,1
0,0,0,0,0,0,1
0,0,0,0,0,0,1
0,0,0,0,0,0,1
0,0,0,0,0,0,1
0,0,0,0,0,0,1
0,0,0,0,0,0,1
0,0,0,0,0,0,1
0,0,0,0,0,0,1
0,0,0,0,0,0,1
0,0,0,0,0,0,1
0,0,0,0,0,0,1
0,0,0,0,0,0,1
0,0,0,0,0,0,1
0,0,0,0,0,0,1
0,0,0,0,0,0,1
0,0,0,0,0,0,1
0,0,0,0,0,0,1
0,0,0,0,0,0,1
0,0,0,0,0,0,1
0,0,0,0,0,0,1
0,0,0,0,0,0,1
0,0,0,0,0,0,1
0,0,0,0,0,0,1
0,0,0,0,0,0,1
0,0,0,0,0,0,1
0,0,0,0,0,0,1
0,0,0,0,0,0,1
0,0,0,0,0,0,1
0,0,0,0,0,0,1
0,0,0,0,0,0,1
0,0,0,0,0,0,1
0,0,0,0,0,0,1
0,0,0,0,0,0,1
0,0,0,0,0,0,1
0,0,0,0,0,0,1
0,0,0,0,0,0,1
0,0,0,0,0,0,1
0,0,0,0,0,0,1
0,0,0,0,0,0,1
0,0,0,0,0,0,1
0,0,0,0,0,0,1
0,0,0,0,0,0,1
0,0,0,0,0,0,1
0,0,0,0,0,0,1
0,0,0,0,0,0,1
0,0,0,0,0,0,1
0,0,0,0,0,0,1
0,0,0,0,0,0,1
0,0,0,0,0,0,1
0,0,0,0,0,0,1
0,0,0,0,0,0,1
0,0,0,0,0,0,1
0,0,0,0,0,0,1
0,0,0,0,0,0,1
0,0,0,0,0,0,1
0,0,0,0,0,0,1
1.05882,-0.815952,9.89431,-38.3273,-5.16144,-1.04277,1
1.03489,-0.148355,10.0522,-76.0834,-9.24768,-2.07527,1
0.971485,-0.0454636,10.069,-121.277,-13.8152,-2.04027,1
1.29212,-3.54377,9.24825,-222.759,-24.9014,-1.25277,1
1.3986,-4.43031,9.09512,-227.974,-26.3014,-0.762775,1
1.43928,-4.6325,9.02692,-225.831,-27.5614,-0.255277,1
1.52782,-4.82034,8.72422,-221.324,-28.1389,0.357222,1
1.4345,-4.68395,8.58664,-219.811,-28.8214,1.40722,1
1.38185,-4.60498,8.39043,-221.718,-29.7751,2.58847,1
1.33998,-4.45304,8.13918,-231.238,-30.8339,4.23346,1
1.35673,-4.78325,7.75872,-242.28,-32.0151,6.0622,1
1.39501,-5.63749,7.31126,-247.294,-32.0589,8.1097,1
1.40698,-6.27278,6.94516,-249.298,-31.6301,9.55344,1
1.54815,-8.20378,5.80618,-220.843,-28.2789,9.73719,1
1.6331,-8.70149,5.44127,-202.328,-27.3689,8.8447,1
1.75155,-9.24706,5.11585,-176.866,-25.5489,8.22345,1
1.79103,-9.59641,4.88255,-148.586,-23.3789,7.20845,1
1.84247,-9.84526,4.69232,-118.302,-20.9464,6.00096,1
1.90349,-9.94576,4.50927,-86.6709,-18.0589,4.69721,1
1.95254,-9.90269,4.34058,-56.0285,-15.0839,3.62096,1
2.0004,-9.85005,4.17069,-26.3398,-11.9077,2.92097,1
2.04945,-9.90389,4.0654,4.39008,-8.12768,2.64971,1
2.0997,-9.94217,3.93739,36.9487,-3.49894,2.64096,1
2.07936,-10.3382,4.00917,157.261,13.9135,1.79222,1
2.0662,-10.1025,4.20179,201.527,19.531,1.70472,1
1.96331,-9.45045,4.47816,241.112,24.5885,1.39847,1
1.85922,-8.45264,4.78325,271.509,28.6222,0.83847,1
1.78744,-7.32203,5.12064,284.599,32.2797,0.173472,1
1.67976,-6.52044,5.64825,285.203,35.7709,-0.255277,1
1.59123,-5.91505,6.31466,285.203,38.5797,-0.964024,1
1.54935,-5.41615,7.02054,285.203,40.4172,-1.85652,1
1.47637,-4.934,7.67497,283.689,41.6247,-2.86277,1
1.40698,-4.27119,8.35932,268.447,40.8984,-3.91277,1
1.07438,-2.7649,9.82014,175.365,30.5122,-8.35775,1
1.0002,-2.7003,10.0857,142.596,25.4547,-9.46025,1
0.910469,-2.45384,10.3202,113.161,20.1085,-10.274,1
0.853041,-2.22413,10.5141,87.7161,14.6748,-10.8515,1
0.892522,-2.22293,10.5846,67.2061,9.76602,-11.009,1
0.882951,-2.36411,10.5164,52.4975,5.67978,-10.939,1
0.880558,-2.40239,10.3454,43.0737,2.63479,-10.7815,1
0.872184,-2.35214,10.1324,37.1325,0.307297,-10.2652,1
0.894915,-2.27438,9.87398,33.5362,-1.2852,-9.154,1
0.932004,-2.18704,9.63589,31.3313,-2.13395,-7.544,1
1.07797,-2.00159,9.27577,26.5625,-2.5977,-1.38402,1
1.12463,-1.9346,9.24227,23.325,-2.0377,0.584721,1
1.1665,-1.95254,9.23748,19.23,-1.1452,2.43096,1
1.20957,-2.00518,9.21834,13.9451,-0.383951,4.04096,1
1.23829,-2.16431,9.25423,7.98632,0.0447979,5.38846,1
1.28255,-2.34138,9.34397,2.43883,0.604796,6.3772,1
1.29452,-2.50648,9.39661,-1.9099,1.19104,7.1297,1
1.30169,-2.73619,9.44925,-4.70115,1.68104,7.5147,1
1.29093,-3.00897,9.51625,-6.27614,1.77729,7.3922,1
1.27178,-3.18963,9.6012,-6.64364,1.81229,6.94595,1
1.17248,-3.43011,9.64187,-2.86365,1.0073,4.36471,1
1.12702,-3.42532,9.62991,-1.46366,0.534796,3.07846,1
1.1318,-3.40618,9.64307,-0.404909,0.132298,1.86222,1
1.09352,-3.35593,9.63828,0.20759,-0.278951,0.558471,1
1.10548,-3.28295,9.59401,0.470089,-0.6377,-0.666526,1
1.0995,-3.20877,9.56171,0.592588,-0.865199,-1.68152,1
1.10788,-3.11785,9.52821,0.776339,-0.795199,-2.48652,1
1.11625,-3.03529,9.50309,1.13509,-0.5852,-3.10777,1
1.11864,-2.96829,9.47557,1.60759,-0.121452,-3.55402,1
1.09711,-2.90967,9.43848,2.02759,0.333547,-3.82527,1
1.12104,-2.6656,9.49352,4.47758,1.39229,-3.22152,1
1.13061,-2.58066,9.53061,4.66133,1.82104,-2.79277,1
1.14138,-2.51844,9.53898,4.22383,2.10979,-2.32027,1
1.12582,-2.46102,9.53898,3.28758,2.31104,-1.75152,1
1.12104,-2.48255,9.57129,2.13258,2.25854,-1.09527,1
1.12941,-2.53041,9.63948,0.986338,2.18854,-0.474026,1
1.11864,-2.57826,9.68734,0.02384,1.99604,0.0947224,1
1.11745,-2.67876,9.69332,-0.991157,1.54104,0.628471,1
1.09711,-2.76371,9.73041,-1.35866,0.841046,1.03097,1
1.08634,-2.7649,9.74716,-0.947407,0.0710478,1.39847,1
1.07079,-2.73619,9.68853,0.0675902,-0.66395,1.78347,1
1.066,-2.74935,9.62751,-0.466158,-0.943949,1.54722,1
1.06361,-2.79601,9.56411,-1.24491,-1.20645,1.45972,1
1.07677,-2.91206,9.52821,-1.98865,-1.41645,1.42472,1
1.1007,-2.94317,9.53539,-2.14615,-1.48645,1.37222,1
1.12343,-2.93599,9.54975,-1.55116,-1.2502,1.28472,1
1.13659,-2.93719,9.52462,-0.737407,-0.987699,1.12722,1
1.13659,-2.95035,9.50189,0.01509,-0.410201,0.89972,1
1.15454,-2.9336,9.47318,0.33884,-0.0689521,0.514721,1
1.15813,-2.91685,9.45404,0.20759,0.412297,0.217222,1
1.17009,-3.04486,9.46002,-0.763657,0.753546,-0.412776,1
1.15214,-2.99103,9.50907,-0.0811596,0.762296,-0.684025,1
0,0,0,0,0,0,1
0,0,0,0,0,0,1
0,0,0,0,0,0,1
0,0,0,0,0,0,1
0,0,0,0,0,0,1
0,0,0,0,0,0,1
0,0,0,0,0,0,1
0,0,0,0,0,0,1
0,0,0,0,0,0,1
0,0,0,0,0,0,1
0,0,0,0,0,0,1
0,0,0,0,0,0,1
0,0,0,0,0,0,1
0,0,0,0,0,0,1
0,0,0,0,0,0,1
0,0,0,0,0,0,1
0,0,0,0,0,0,1
0,0,0,0,0,0,1
0,0,0,0,0,0,1
0,0,0,0,0,0,1
0,0,0,0,0,0,1
0,0,0,0,0,0,1
0,0,0,0,0,0,1
0,0,0,0,0,0,1
0,0,0,0,0,0,1
0,0,0,0,0,0,1
0,0,0,0,0,0,1
0,0,0,0,0,0,1
0,0,0,0,0,0,1
0,0,0,0,0,0,1
0,0,0,0,0,0,1
0,0,0,0,0,0,1
0,0,0,0,0,0,1
0,0,0,0,0,0,1
0,0,0,0,0,0,1
0,0,0,0,0,0,1
0,0,0,0,0,0,1
0,0,0,0,0,0,1
0,0,0,0,0,0,1
0,0,0,0,0,0,1
0,0,0,0,0,0,1
0,0,0,0,0,0,1
0,0,0,0,0,0,1
0,0,0,0,0,0,1
0,0,0,0,0,0,1
0,0,0,0,0,0,1
0,0,0,0,0,0,1
0,0,0,0,0,0,1
0,0,0,0,0,0,1
0,0,0,0,0,0,1
0,0,0,0,0,0,1
0,0,0,0,0,0,1
0,0,0,0,0,0,1
0,0,0,0,0,0,1
0,0,0,0,0,0,1
0,0,0,0,0,0,1
0,0,0,0,0,0,1
0,0,0,0,0,0,1
0,0,0,0,0,0,1
0,0,0,0,0,0,1
0,0,0,0,0,0,1
0,0,0,0,0,0,1
0,0,0,0,0,0,1
0,0,0,0,0,0,1
0,0,0,0,0,0,1
0,0,0,0,0,0,1
0,0,0,0,0,0,1
0,0,0,0,0,0,1
0,0,0,0,0,0,1
0,0,0,0,0,0,1
0,0,0,0,0,0,1
0,0,0,0,0,0,1
0,0,0,0,0,0,1
0,0,0,0,0,0,1
0,0,0,0,0,0,1
0,0,0,0,0,0,1
0,0,0,0,0,0,1
0,0,0,0,0,0,1
0,0,0,0,0,0,1
0,0,0,0,0,0,1
0,0,0,0,0,0,1
0,0,0,0,0,0,1
0,0,0,0,0,0,1
0,0,0,0,0,0,1
0,0,0,0,0,0,1
0,0,0,0,0,0,1
0,0,0,0,0,0,1
0,0,0,0,0,0,1
0,0,0,0,0,0,1
0,0,0,0,0,0,1
0,0,0,0,0,0,1
0,0,0,0,0,0,1
0,0,0,0,0,0,1
0,0,0,0,0,0,1
0,0,0,0,0,0,1
0,0,0,0,0,0,1
0,0,0,0,0,0,1
0,0,0,0,0,0,1
0,0,0,0,0,0,1
0,0,0,0,0,0,1
0,0,0,0,0,0,1
0,0,0,0,0,0,1
0,0,0,0,0,0,1
0,0,0,0,0,0,1
0,0,0,0,0,0,1
0,0,0,0,0,0,1
0,0,0,0,0,0,1
0,0,0,0,0,0,1
0,0,0,0,0,0,1
0,0,0,0,0,0,1
0,0,0,0,0,0,1
0,0,0,0,0,0,1
0,0,0,0,0,0,1
0,0,0,0,0,0,1
0,0,0,0,0,0,1
1.11984,-1.67737,9.7998,-27.3811,-3.45519,-0.955275,1
1.06481,-0.803988,10.0092,-56.606,-6.61393,-2.12777,1
0.993021,-0.196211,9.9649,-99.5771,-11.5927,-2.97652,1
0.975075,-0.305085,9.8644,-150.327,-17.6214,-2.82777,1
1.10309,-1.401,9.58445,-197.122,-23.0989,-2.69652,1
1.2012,-2.91206,9.32243,-230.468,-26.7739,-2.23277,1
1.34357,-4.41475,9.14177,-246.778,-29.5564,-2.01402,1
1.45005,-5.44367,9.04606,-245.159,-31.0176,-2.00527,1
1.48953,-5.76072,8.92881,-234.983,-32.1026,-1.67277,1
1.37348,-4.99023,7.97767,-227.143,-34.8063,0.540971,1
1.33519,-4.94955,7.72283,-237.31,-36.6438,1.45097,1
1.37468,-5.44127,7.27896,-247.268,-37.8338,2.81596,1
1.48355,-6.21296,6.82792,-253.183,-37.8513,4.13721,1
1.55294,-7.07916,6.37567,-254.215,-37.4138,4.60971,1
1.6319,-7.86401,6.01795,-245.912,-36.6876,4.79346,1
1.72881,-8.28993,5.53938,-234.449,-35.9876,4.60971,1
1.85204,-8.84626,5.17687,-214.482,-34.4563,4.37346,1
1.87597,-9.0999,4.85384,-191.723,-32.6714,4.12846,1
1.92861,-9.37986,4.56909,-165.447,-30.2914,3.69971,1
2.07817,-9.55453,3.82971,-77.0897,-19.6776,2.68471,1
2.132,-9.48993,3.62512,-49.641,-15.8627,2.56221,1
2.17627,-9.54377,3.43729,-23.1373,-11.8114,2.62346,1
2.25763,-9.69691,3.32602,4.59133,-7.22643,3.06971,1
2.31505,-9.94815,3.20518,34.98,-1.8802,3.41096,1
2.30189,-10.0738,3.27099,68.6586,4.06104,3.64721,1
2.25404,-9.667,3.53061,95.7135,8.64602,3.13096,1
2.24327,-9.35473,3.80698,118.323,12.8723,2.47472,1
2.19063,-8.86779,4.12044,136.051,17.0985,2.42222,1
2.0997,-8.48614,4.35613,148.397,20.6772,2.18597,1
1.98963,-8.21934,5.28215,166.728,28.841,-0.176527,1
1.93699,-8.02432,5.72004,169.616,30.0835,-1.45402,1
1.83888,-7.84367,6.14118,174.148,31.3172,-2.76652,1
1.74197,-7.64746,6.52522,179.416,31.7984,-3.87777,1
1.67856,-7.45842,6.87936,184.36,31.8597,-5.23401,1
1.58165,-7.25025,7.22393,190.616,31.5972,-6.64276,1
1.48475,-7.01934,7.51107,198.57,31.4397,-7.8415,1
1.40698,-6.57667,7.78265,206.051,31.116,-8.90025,1
1.35793,-6.02632,8.02672,212.683,30.3547,-9.72275,1
1.2993,-5.43888,8.266,217.539,29.6285,-10.1777,1
1.19641,-3.78066,9.0006,211.187,25.131,-9.68774,1
1.17966,-3.25065,9.19681,201.658,23.136,-9.0665,1
1.15334,-2.77926,9.37268,189.435,21.2547,-8.34025,1
1.12821,-2.34257,9.57248,174.875,19.1372,-7.46526,1
1.10429,-2.35812,9.62034,161.802,17.4135,-6.44151,1
1.19282,-2.4,9.68734,150.908,15.2348,-5.57526,1
1.18445,-2.11765,9.81655,139.42,13.1873,-5.24276,1
1.16291,-1.68335,9.92303,126.093,10.8248,-4.78776,1
1.19282,-1.23589,9.98285,109.224,8.39228,-4.07026,1
1.17966,-0.808774,9.99601,88.6961,6.13478,-3.30027,1
1.21675,-1.00379,9.81416,21.3475,0.018548,-1.00777,1
1.24307,-1.3651,9.7316,5.50133,-1.24145,-0.447776,1
1.25025,-1.74915,9.6981,-3.9574,-1.74895,0.112222,1
1.24546,-2.06142,9.64307,-6.45114,-1.4602,0.95222,1
1.23111,-2.22652,9.57846,-4.1674,-1.11895,1.60847,1
1.24427,-2.27318,9.51625,0.17259,-0.5502,2.17722,1
1.21914,-2.26839,9.50668,4.83633,0.018548,2.68471,1
1.22154,-2.18465,9.55932,8.75632,0.596046,3.16596,1
1.19641,-2.04467,9.64426,10.7426,1.27854,3.52471,1
1.20718,-1.99442,9.68135,10.1563,1.57604,3.83096,1
1.16889,-1.99083,9.75792,-1.95365,1.70729,3.15721,1
1.17846,-2.12841,9.75553,-6.52114,1.40979,2.64096,1
1.1988,-2.24925,9.76151,-10.0211,0.911045,2.06347,1
1.19521,-2.36052,9.76989,-12.1386,0.604796,1.49472,1
1.20239,-2.45503,9.7651,-13.0661,0.114798,1.00472,1
1.21914,-2.45862,9.76391,-13.1011,-0.173952,0.514721,1
1.20598,-2.45862,9.72084,-12.4886,-0.331451,0.129722,1
1.20598,-2.49093,9.71246,-11.5261,-0.523951,-0.237777,1
1.21914,-2.4658,9.70887,-10.0911,-0.5677,-0.570276,1
1.22752,-2.42632,9.67178,-8.60363,-0.47145,-0.841525,1
1.21077,-2.37488,9.68255,-4.9199,-0.313951,-1.27027,1
1.20957,-2.34018,9.68494,-3.59865,-0.156451,-1.23527,1
1.20718,-2.30668,9.68135,-2.4174,0.246047,-1.15652,1
1.18923,-2.28514,9.66341,-1.62115,0.464797,-1.12152,1
1.18086,-2.28873,9.65623,-1.29741,0.569796,-1.06902,1
1.19043,-2.24566,9.68016,-0.973657,0.578546,-0.937775,1
1.20479,-2.22891,9.71485,-0.807407,0.858545,-0.605276,1
1.2,-2.24806,9.734,-0.737407,1.07729,-0.369026,1
1.2,-2.25882,9.71485,-0.842407,0.989795,-0.194027,1
1.20359,-2.27557,9.68255,-1.21866,0.718546,-0.0715271,1
1.1988,-2.29352,9.75912,-0.737407,0.202297,0.409721,1
1.18325,-2.2983,9.78544,-0.614908,0.123548,0.418471,1
1.18325,-2.30189,9.75553,-0.711158,0.123548,0.462221,1
1.16411,-2.34257,9.71844,-0.999907,0.0885477,0.374722,1
1.1665,-2.37368,9.71246,-1.11366,0.0622983,0.243472,1
1.17607,-2.37368,9.72443,-1.08741,-0.0514517,0.252222,1
1.18325,-2.37248,9.70887,-0.929907,-0.0689521,0.322222,1
1.19402,-2.41675,9.65025,-1.06116,-0.357701,0.322222,1
1.17129,-2.4335,9.64905,-0.894907,-0.392701,0.208472,1
1.17009,-2.4012,9.67418,-0.352408,-0.348951,0.225972,1
0,0,0,0,0,0,1
0,0,0,0,0,0,1
0,0,0,0,0,0,1
0,0,0,0,0,0,1
0,0,0,0,0,0,1
0,0,0,0,0,0,1
0,0,0,0,0,0,1
0,0,0,0,0,0,1
0,0,0,0,0,0,1
0,0,0,0,0,0,1
0,0,0,0,0,0,1
0,0,0,0,0,0,1
0,0,0,0,0,0,1
0,0,0,0,0,0,1
0,0,0,0,0,0,1
0,0,0,0,0,0,1
0,0,0,0,0,0,1
0,0,0,0,0,0,1
0,0,0,0,0,0,1
0,0,0,0,0,0,1
0,0,0,0,0,0,1
0,0,0,0,0,0,1
0,0,0,0,0,0,1
0,0,0,0,0,0,1
0,0,0,0,0,0,1
0,0,0,0,0,0,1
0,0,0,0,0,0,1
0,0,0,0,0,0,1
0,0,0,0,0,0,1
0,0,0,0,0,0,1
0,0,0,0,0,0,1
0,0,0,0,0,0,1
0,0,0,0,0,0,1
0,0,0,0,0,0,1
0,0,0,0,0,0,1
0,0,0,0,0,0,1
0,0,0,0,0,0,1
0,0,0,0,0,0,1
0,0,0,0,0,0,1
0,0,0,0,0,0,1
0,0,0,0,0,0,1
0,0,0,0,0,0,1
0,0,0,0,0,0,1
0,0,0,0,0,0,1
0,0,0,0,0,0,1
0,0,0,0,0,0,1
0,0,0,0,0,0,1
0,0,0,0,0,0,1
0,0,0,0,0,0,1
0,0,0,0,0,0,1
0,0,0,0,0,0,1
0,0,0,0,0,0,1
0,0,0,0,0,0,1
0,0,0,0,0,0,1
0,0,0,0,0,0,1
0,0,0,0,0,0,1
0,0,0,0,0,0,1
0,0,0,0,0,0,1
0,0,0,0,0,0,1
0,0,0,0,0,0,1
0,0,0,0,0,0,1
0,0,0,0,0,0,1
0,0,0,0,0,0,1
0,0,0,0,0,0,1
0,0,0,0,0,0,1
0,0,0,0,0,0,1
0,0,0,0,0,0,1
0,0,0,0,0,0,1
0,0,0,0,0,0,1
0,0,0,0,0,0,1
0,0,0,0,0,0,1
0,0,0,0,0,0,1
0,0,0,0,0,0,1
0,0,0,0,0,0,1
0,0,0,0,0,0,1
0,0,0,0,0,0,1
0,0,0,0,0,0,1
0,0,0,0,0,0,1
0,0,0,0,0,0,1
0,0,0,0,0,0,1
0,0,0,0,0,0,1
0,0,0,0,0,0,1
0,0,0,0,0,0,1
0,0,0,0,0,0,1
0,0,0,0,0,0,1
0,0,0,0,0,0,1
0,0,0,0,0,0,1
0,0,0,0,0,0,1
0,0,0,0,0,0,1
0,0,0,0,0,0,1
0,0,0,0,0,0,1
0,0,0,0,0,0,1
0,0,0,0,0,0,1
0,0,0,0,0,0,1
0,0,0,0,0,0,1
0,0,0,0,0,0,1
0,0,0,0,0,0,1
0,0,0,0,0,0,1
0,0,0,0,0,0,1
0,0,0,0,0,0,1
0,0,0,0,0,0,1
0,0,0,0,0,0,1
0,0,0,0,0,0,1
0,0,0,0,0,0,1
0,0,0,0,0,0,1
0,0,0,0,0,0,1
0,0,0,0,0,0,1
0,0,0,0,0,0,1
0,0,0,0,0,0,1
0,0,0,0,0,0,1
0,0,0,0,0,0,1
1.0002,-0.221336,10.0642,-69.5647,-7.68143,-2.06652,1
0.989432,-0.379262,10.0199,-108.292,-11.6014,-1.69902,1
1.05882,-0.747756,9.7998,-148.831,-16.0989,-1.61152,1
1.17727,-1.57687,9.54975,-182.466,-19.3626,-1.24402,1
1.30169,-2.7003,9.32363,-204.586,-21.5589,-0.377776,1
1.36152,-3.47557,9.1657,-216.757,-23.5801,0.260972,1
1.3675,-4.12881,9.03051,-218.192,-24.7964,1.09222,1
1.38903,-4.42552,8.93479,-215.549,-26.0564,2.07222,1
1.3986,-4.44586,8.79482,-214.071,-27.1064,3.05221,1
1.36271,-4.55234,8.62253,-214.919,-27.6926,4.09346,1
1.33998,-5.70807,7.75753,-225.533,-30.2389,7.5147,1
1.4321,-6.64487,7.33998,-220.353,-29.9151,7.97845,1
1.50149,-7.41894,6.99063,-208.243,-28.7426,7.9872,1
1.54696,-7.88674,6.66879,-191.636,-27.3601,7.36595,1
1.63789,-8.29112,6.36371,-169.559,-25.5576,6.5697,1
1.70369,-8.48734,6.06819,-145.541,-23.7201,5.49346,1
1.75872,-8.62014,5.799,-119.352,-21.5151,4.60096,1
1.78983,-8.63689,5.62313,-93.9071,-18.9951,3.92721,1
1.85085,-8.63928,5.49152,-70.0197,-16.3089,3.43721,1
1.88913,-8.59381,5.38026,-48.0223,-13.4389,3.26221,1
2.01356,-8.84865,5.10269,16.9638,-2.82519,3.87471,1
2.05902,-9.05683,5.03928,42.5575,1.61104,3.73471,1
2.04347,-9.26141,5.01296,72.0624,6.59853,3.55971,1
2.04227,-9.42652,5.04048,104.875,11.201,3.29721,1
2.01236,-9.47796,5.16849,141.441,16.0835,2.97346,1
1.95972,-9.32961,5.38863,179.915,20.686,2.70222,1
1.88794,-8.9994,5.59442,218.852,25.1397,1.96722,1
1.80538,-8.37846,5.87437,255.217,29.7247,0.87347,1
1.69172,-7.55174,6.14118,281.685,34.5372,-0.325276,1
1.57687,-6.70349,6.64247,285.203,39.1747,-1.46277,1
1.24427,-3.49711,8.57946,285.203,43.2434,-6.63401,1
1.10429,-2.42512,9.22672,283.033,41.2397,-8.16525,1
1.07079,-1.53858,9.86321,256.836,36.6372,-9.6965,1
0.993021,-0.702293,10.3836,210.189,31.1335,-11.5077,1
0.898504,-0.21655,10.6744,156.946,24.6235,-12.5752,1
0.850648,-0.0370887,10.7474,102.827,17.4222,-13.3627,1
0.811166,-0.0574277,10.721,52.2262,10.0548,-14.159,1
0.841076,-0.329013,10.7222,9.17631,3.31729,-14.7015,1
0.929611,-1.05882,10.5918,-20.2586,-1.80145,-14.054,1
0.961914,-1.75753,10.4064,-36.6735,-5.30144,-12.7765,1
1.0002,-2.55553,9.6,-25.2986,-8.20643,-7.21151,1
1.03729,-2.58664,9.37866,-10.8436,-7.18268,-4.74401,1
1.07318,-2.40957,9.25423,2.83258,-5.88769,-2.27652,1
1.12104,-2.17986,9.23031,12.8688,-4.48769,0.164722,1
1.15813,-1.99202,9.20518,18.495,-3.09644,2.62346,1
1.21316,-1.8987,9.18006,19.8513,-1.53895,4.78471,1
1.21555,-1.87717,9.17886,16.8938,-0.462701,6.4997,1
1.25743,-1.97767,9.23868,10.8651,0.281048,7.75095,1
1.27777,-2.14636,9.34157,3.82133,0.744796,8.5822,1
1.29212,-2.35812,9.42173,-2.61865,1.22604,9.10719,1
1.30409,-3.15015,9.62991,-10.8961,1.63729,8.0572,1
1.28136,-3.34038,9.70768,-9.57488,1.56729,7.1122,1
1.26221,-3.41336,9.74716,-7.36989,1.27854,5.96596,1
1.24786,-3.50429,9.74117,-4.57865,0.858545,4.60971,1
1.2335,-3.49352,9.73759,-1.58615,0.421047,3.16596,1
1.21675,-3.36191,9.71127,0.907588,0.167298,1.58222,1
1.19162,-3.265,9.64546,2.22008,-0.261451,0.147222,1
1.16411,-3.16451,9.58086,2.43008,-0.462701,-1.14777,1
1.14496,-3.04606,9.53419,2.11508,-0.5852,-2.16277,1
1.14138,-2.93958,9.5007,1.81759,-0.462701,-2.95027,1
1.11266,-2.7996,9.43729,2.03633,0.0622983,-3.93027,1
1.12702,-2.65842,9.50787,3.34883,0.683546,-3.59777,1
1.1318,-2.54955,9.56171,4.66133,1.33104,-3.15152,1
1.11984,-2.49212,9.58804,5.43133,1.87354,-2.67902,1
1.11027,-2.48614,9.58205,5.16007,1.98729,-2.23277,1
1.1342,-2.41316,9.62512,4.46008,1.94354,-1.80402,1
1.12821,-2.37009,9.69212,3.55008,1.92604,-1.15652,1
1.15095,-2.35573,9.75434,2.43008,1.75104,-0.500276,1
1.13061,-2.4,9.78903,1.41509,1.40104,-0.0365272,1
1.11147,-2.44187,9.75792,0.382589,1.12104,0.269722,1
1.11984,-2.5328,9.77946,-0.299909,-0.48895,1.03972,1
1.11984,-2.54835,9.76271,-0.151159,-0.821449,1.30222,1
1.10907,-2.58544,9.71485,-0.299909,-1.1802,1.38972,1
1.11864,-2.60818,9.64067,-0.746157,-1.36395,1.39847,1
1.13539,-2.64167,9.61436,-1.15741,-1.55645,1.42472,1
1.15334,-2.66082,9.58804,-1.27991,-1.45145,1.55597,1
1.1653,-2.69432,9.51386,-1.18366,-1.43395,1.56472,1
1.17607,-2.74815,9.48395,-1.24491,-1.32895,1.57347,1
1.18564,-2.80797,9.52462,-1.09616,-1.2152,1.38972,1
1.19402,-2.80678,9.57607,-0.553658,-0.987699,1.20597,1
1.20957,-2.8331,9.54137,-0.509908,-0.515201,0.488471,1
1.20479,-2.8331,9.56052,-0.702408,-0.375201,0.120972,1
1.20718,-2.82114,9.57248,-0.492408,-0.182702,-0.0977771,1
1.21316,-2.7996,9.58086,-0.0724092,0.0622983,-0.386526,1
1.19761,-2.77687,9.58445,0.28634,0.237298,-0.692776,1
0,0,0,0,0,0,1
0,0,0,0,0,0,1
0,0,0,0,0,0,1
0,0,0,0,0,0,1
0,0,0,0,0,0,1
0,0,0,0,0,0,1
0,0,0,0,0,0,1
0,0,0,0,0,0,1
0,0,0,0,0,0,1
0,0,0,0,0,0,1
0,0,0,0,0,0,1
0,0,0,0,0,0,1
0,0,0,0,0,0,1
0,0,0,0,0,0,1
0,0,0,0,0,0,1
0,0,0,0,0,0,1
0,0,0,0,0,0,1
0,0,0,0,0,0,1
0,0,0,0,0,0,1
0,0,0,0,0,0,1
0,0,0,0,0,0,1
0,0,0,0,0,0,1
0,0,0,0,0,0,1
0,0,0,0,0,0,1
0,0,0,0,0,0,1
0,0,0,0,0,0,1
0,0,0,0,0,0,1
0,0,0,0,0,0,1
0,0,0,0,0,0,1
0,0,0,0,0,0,1
0,0,0,0,0,0,1
0,0,0,0,0,0,1
0,0,0,0,0,0,1
0,0,0,0,0,0,1
0,0,0,0,0,0,1
0,0,0,0,0,0,1
0,0,0,0,0,0,1
0,0,0,0,0,0,1
0,0,0,0,0,0,1
0,0,0,0,0,0,1
0,0,0,0,0,0,1
0,0,0,0,0,0,1
0,0,0,0,0,0,1
0,0,0,0,0,0,1
0,0,0,0,0,0,1
0,0,0,0,0,0,1
0,0,0,0,0,0,1
0,0,0,0,0,0,1
0,0,0,0,0,0,1
0,0,0,0,0,0,1
0,0,0,0,0,0,1
0,0,0,0,0,0,1
0,0,0,0,0,0,1
0,0,0,0,0,0,1
0,0,0,0,0,0,1
0,0,0,0,0,0,1
0,0,0,0,0,0,1
0,0,0,0,0,0,1
0,0,0,0,0,0,1
0,0,0,0,0,0,1
0,0,0,0,0,0,1
0,0,0,0,0,0,1
0,0,0,0,0,0,1
0,0,0,0,0,0,1
0,0,0,0,0,0,1
0,0,0,0,0,0,1
0,0,0,0,0,0,1
0,0,0,0,0,0,1
0,0,0,0,0,0,1
0,0,0,0,0,0,1
0,0,0,0,0,0,1
0,0,0,0,0,0,1
0,0,0,0,0,0,1
0,0,0,0,0,0,1
0,0,0,0,0,0,1
0,0,0,0,0,0,1
0,0,0,0,0,0,1
0,0,0,0,0,0,1
0,0,0,0,0,0,1
0,0,0,0,0,0,1
0,0,0,0,0,0,1
0,0,0,0,0,0,1
0,0,0,0,0,0,1
0,0,0,0,0,0,1
0,0,0,0,0,0,1
0,0,0,0,0,0,1
0,0,0,0,0,0,1
0,0,0,0,0,0,1
0,0,0,0,0,0,1
0,0,0,0,0,0,1
0,0,0,0,0,0,1
0,0,0,0,0,0,1
0,0,0,0,0,0,1
0,0,0,0,0,0,1
0,0,0,0,0,0,1
0,0,0,0,0,0,1
0,0,0,0,0,0,1
0,0,0,0,0,0,1
0,0,0,0,0,0,1
0,0,0,0,0,0,1
0,0,0,0,0,0,1
0,0,0,0,0,0,1
0,0,0,0,0,0,1
0,0,0,0,0,0,1
0,0,0,0,0,0,1
0,0,0,0,0,0,1
0,0,0,0,0,0,1
0,0,0,0,0,0,1
0,0,0,0,0,0,1
0,0,0,0,0,0,1
0,0,0,0,0,0,1
0,0,0,0,0,0,1
0,0,0,0,0,0,1
0,0,0,0,0,0,1
0,0,0,0,0,0,1
1.17966,-4.60498,9.80219,33.2912,4.42854,1.17097,2
1.26939,-6.19023,9.88115,79.8761,9.19727,1.90597,2
1.16291,-7.07318,9.8991,144.976,14.316,2.16847,2
1.18325,-1.8329,9.84526,272.577,14.5348,-8.4015,2
1.04447,0.0143569,10.1707,274.23,13.1348,-10.3877,2
1.11745,0.610169,10.1862,263.783,11.6035,-10.414,2
0.983449,0.987039,10.2664,241.051,8.40977,-10.729,2
0.955932,1.0337,10.1779,222.413,5.15478,-10.5015,2
0.915254,1.17727,10.1228,202.542,1.77729,-11.1752,2
0.765703,1.56849,9.92662,186.783,-1.0052,-12.0415,2
0.800399,2.00877,9.6658,172.888,-3.46394,-12.2165,2
0.843469,2.46102,9.265,162.073,-4.90769,-11.954,2
0.85663,3.02931,9.04965,146.008,-6.99018,-11.2802,2
1.05284,3.95892,8.60698,102.81,-6.58769,-7.20275,2
1.1342,3.85842,8.57348,89.9998,-4.54019,-6.21401,2
1.11745,3.98165,8.50289,80.9698,-2.32645,-5.23401,2
1.14736,4.07856,8.41436,72.1674,-0.348951,-3.95652,2
1.0995,4.11804,8.34137,63.3299,2.00479,-2.74902,2
1.03968,4.32143,8.35932,54.1949,3.80729,-1.75152,2
0.984646,4.25683,8.534,45.795,5.57478,-0.902775,2
0.853041,4.24128,8.73978,39.4162,7.13228,-0.194027,2
0.836291,4.20419,8.95274,33.2737,7.73603,0.532221,2
0.802791,4.07737,9.23629,26.7463,7.81478,0.96097,2
0.693918,3.87278,9.55693,14.575,4.69103,1.62597,2
0.754935,3.91226,9.57966,8.66006,2.41604,1.39847,2
0.830309,3.71844,9.58445,3.49758,0.491046,1.24972,2
0.859023,3.36909,9.55453,3.94383,-0.305202,1.18847,2
0.875773,3.26381,9.52103,4.18008,-1.83645,0.83847,2
0.910469,3.33559,9.54377,3.07758,-3.39394,-0.482776,2
0.948754,3.47079,9.41336,1.23134,-4.68019,-1.50652,2
0.994217,3.70768,9.2016,-4.68365,-6.09768,-2.44277,2
1.00379,3.88594,8.91565,-14.1774,-7.41018,-3.37902,2
1.00618,4.27477,8.64287,-28.6586,-8.72268,-4.43776,2
1.02054,5.14935,8.05543,-108.66,-12.5552,-7.964,2
1.09352,5.18285,7.87358,-142.111,-12.4414,-8.2265,2
1.17368,4.91605,7.94776,-172.946,-11.2077,-7.65775,2
1.25145,4.02592,8.11166,-191.758,-7.16518,-6.27526,2
1.24905,3.03529,8.32103,-202.206,-3.31519,-3.93027,2
1.22512,2.17507,8.72303,-205.434,-0.0164523,-1.43652,2
1.14018,1.64506,9.07118,-201.479,2.48604,1.32847,2
1.11266,1.27537,9.38464,-191.548,4.83103,4.59221,2
1.01815,1.15932,9.69571,-179.071,6.80853,7.8472,2
0.906879,1.05523,9.96012,-168.422,7.83228,10.5509,2
0.808774,-0.00598205,10.6612,-153.529,3.62354,16.7809,2
0.854237,-0.661615,10.7844,-149.767,1.14729,17.6909,2
0.848255,-1.21795,10.7402,-144.377,-1.5652,18.5572,2
0.929611,-1.73001,10.6624,-137.193,-4.24269,18.7409,2
0.943968,-2.24925,10.5751,-126.982,-6.66644,18.0059,2
0.975075,-2.70748,10.4435,-114.811,-8.53893,16.8072,2
1.0014,-3.00897,10.2987,-101.31,-9.51018,15.1797,2
1.03131,-3.21834,10.1157,-87.4759,-10.2802,13.4297,2
1.06122,-3.39661,9.92901,-72.7497,-9.98267,11.4959,2
1.03848,-3.41695,9.79262,-58.181,-9.16892,9.36094,2
1.17488,-3.31884,9.3978,-25.7886,-6.14143,4.02346,2
1.20359,-3.27697,9.32363,-17.0386,-4.38269,2.48347,2
1.21675,-3.14417,9.29013,-9.17238,-2.37895,1.05722,2
1.23709,-3.05444,9.26261,-2.72365,-0.61145,-0.0715271,2
1.21675,-2.9336,9.26261,2.30758,0.762296,-1.03402,2
1.19402,-2.72423,9.32602,6.35007,2.06604,-1.75152,2
1.17009,-2.52443,9.43609,9.77131,3.51854,-2.09277,2
1.14616,-2.36889,9.5677,12.3526,4.63853,-2.36402,2
1.12223,-2.25882,9.68614,14.2076,5.58353,-2.69652,2
1.07677,-2.13679,9.78424,15.4063,6.23103,-2.98527,2
0.951146,-1.82692,10.008,15.5813,6.23978,-3.07277,2
0.917647,-1.74197,10.0391,14.6713,5.66228,-2.81027,2
0.897308,-1.66421,10.0534,13.0613,4.69979,-2.45152,2
0.879362,-1.5996,10.0833,10.9088,3.58854,-2.15402,2
0.876969,-1.56132,10.063,8.44131,2.38104,-1.70777,2
0.878165,-1.53141,10.0738,6.12257,1.21729,-1.20027,2
0.862612,-1.53499,10.0666,4.40758,0.246047,-0.561526,2
0.881755,-1.55294,10.0331,3.04258,-0.532701,0.00722265,2
0.891326,-1.61156,9.9984,2.05383,-1.13645,0.514721,2
0.899701,-1.65942,9.96371,1.31884,-1.6177,0.91722,2
0.985843,-1.78983,9.81416,0.12884,-2.02895,2.07222,2
1.01456,-1.83649,9.76391,-0.0286598,-1.83645,2.35222,2
1.04686,-1.88794,9.7316,-0.404909,-1.60895,2.43972,2
1.05404,-1.98245,9.71725,-0.798657,-1.5127,2.38722,2
1.07318,-2.03988,9.72801,-0.824907,-1.34645,2.27347,2
1.08275,-2.07577,9.74237,-0.553658,-0.865199,2.15972,2
1.10189,-2.11406,9.73998,-0.116159,-0.5502,1.87097,2
1.09232,-2.14038,9.734,0.426339,-0.375201,1.45097,2
1.07318,-2.14397,9.71366,0.785088,-0.348951,1.02222,2
1.04447,-2.14875,9.73041,1.03884,-0.261451,0.532221,2
1.01934,-2.01834,9.83689,2.08883,-0.165201,-1.09527,2
1.0325,-1.98724,9.81057,2.35133,-0.0689521,-1.68152,2
1.04088,-1.94058,9.79142,2.43883,-0.0602016,-2.17152,2
1.0337,-1.91426,9.77946,2.47383,-0.086452,-2.42527,2
1.02891,-1.85803,9.78185,2.59633,-0.0339518,-2.51277,2
1.0337,-1.78624,9.80219,2.80633,-0.086452,-2.35527,2
0,0,0,0,0,0,2
0,0,0,0,0,0,2
0,0,0,0,0,0,2
0,0,0,0,0,0,2
0,0,0,0,0,0,2
0,0,0,0,0,0,2
0,0,0,0,0,0,2
0,0,0,0,0,0,2
0,0,0,0,0,0,2
0,0,0,0,0,0,2
0,0,0,0,0,0,2
0,0,0,0,0,0,2
0,0,0,0,0,0,2
0,0,0,0,0,0,2
0,0,0,0,0,0,2
0,0,0,0,0,0,2
0,0,0,0,0,0,2
0,0,0,0,0,0,2
0,0,0,0,0,0,2
0,0,0,0,0,0,2
0,0,0,0,0,0,2
0,0,0,0,0,0,2
0,0,0,0,0,0,2
0,0,0,0,0,0,2
0,0,0,0,0,0,2
0,0,0,0,0,0,2
0,0,0,0,0,0,2
0,0,0,0,0,0,2
0,0,0,0,0,0,2
0,0,0,0,0,0,2
0,0,0,0,0,0,2
0,0,0,0,0,0,2
0,0,0,0,0,0,2
0,0,0,0,0,0,2
0,0,0,0,0,0,2
0,0,0,0,0,0,2
0,0,0,0,0,0,2
0,0,0,0,0,0,2
0,0,0,0,0,0,2
0,0,0,0,0,0,2
0,0,0,0,0,0,2
0,0,0,0,0,0,2
0,0,0,0,0,0,2
0,0,0,0,0,0,2
0,0,0,0,0,0,2
0,0,0,0,0,0,2
0,0,0,0,0,0,2
0,0,0,0,0,0,2
0,0,0,0,0,0,2
0,0,0,0,0,0,2
0,0,0,0,0,0,2
0,0,0,0,0,0,2
0,0,0,0,0,0,2
0,0,0,0,0,0,2
0,0,0,0,0,0,2
0,0,0,0,0,0,2
0,0,0,0,0,0,2
0,0,0,0,0,0,2
0,0,0,0,0,0,2
0,0,0,0,0,0,2
0,0,0,0,0,0,2
0,0,0,0,0,0,2
0,0,0,0,0,0,2
0,0,0,0,0,0,2
0,0,0,0,0,0,2
0,0,0,0,0,0,2
0,0,0,0,0,0,2
0,0,0,0,0,0,2
0,0,0,0,0,0,2
0,0,0,0,0,0,2
0,0,0,0,0,0,2
0,0,0,0,0,0,2
0,0,0,0,0,0,2
0,0,0,0,0,0,2
0,0,0,0,0,0,2
0,0,0,0,0,0,2
0,0,0,0,0,0,2
0,0,0,0,0,0,2
0,0,0,0,0,0,2
0,0,0,0,0,0,2
0,0,0,0,0,0,2
0,0,0,0,0,0,2
0,0,0,0,0,0,2
0,0,0,0,0,0,2
0,0,0,0,0,0,2
0,0,0,0,0,0,2
0,0,0,0,0,0,2
0,0,0,0,0,0,2
0,0,0,0,0,0,2
0,0,0,0,0,0,2
0,0,0,0,0,0,2
0,0,0,0,0,0,2
0,0,0,0,0,0,2
0,0,0,0,0,0,2
0,0,0,0,0,0,2
0,0,0,0,0,0,2
0,0,0,0,0,0,2
0,0,0,0,0,0,2
0,0,0,0,0,0,2
0,0,0,0,0,0,2
0,0,0,0,0,0,2
0,0,0,0,0,0,2
0,0,0,0,0,0,2
0,0,0,0,0,0,2
0,0,0,0,0,0,2
0,0,0,0,0,0,2
0,0,0,0,0,0,2
0,0,0,0,0,0,2
0,0,0,0,0,0,2
0,0,0,0,0,0,2
0,0,0,0,0,0,2
1.07916,-3.05803,9.95773,26.0025,3.78979,1.08347,2
1.06839,-3.76151,9.99601,54.3874,7.21978,1.25847,2
1.08155,-4.45543,9.97687,97.3323,11.236,2.33472,2
0.906879,-3.73878,10.0989,136.165,12.7148,1.62597,2
0.993021,-2.9671,9.96371,172.643,13.651,1.45097,2
1.08873,-1.85803,10.1492,196.618,13.3798,0.330972,2
0.94995,-0.869791,10.2126,214.827,13.7823,-0.465276,2
0.849451,0.787238,10.2437,213.269,10.536,-5.04151,2
0.723828,1.18205,10.3274,203.286,7.41228,-6.51151,2
0.583848,1.74197,10.331,186.713,3.82479,-8.244,2
0.570688,2.26361,10.1109,169.625,-0.270201,-9.3115,2
0.636491,2.60219,9.88474,150.051,-4.59269,-9.97649,2
0.650847,2.87737,9.64666,133.671,-7.53268,-10.2915,2
0.662812,3.00778,9.45763,119.846,-9.55392,-10.2652,2
0.748953,3.0999,9.21595,109.705,-10.9364,-10.1865,2
0.825523,3.24227,8.99222,99.7473,-11.3739,-10.3265,2
0.85663,3.57248,8.7649,90.3673,-11.3389,-10.2915,2
0.9332,4.25324,8.3665,61.5624,-7.32268,-7.8065,2
0.92004,4.21136,8.43828,52.6637,-4.94269,-6.75651,2
0.87338,4.20419,8.48375,47.44,-2.62395,-5.89026,2
0.891326,4.39561,8.43948,40.3525,-0.71645,-5.09401,2
0.859023,4.62413,8.42154,31.4362,1.06854,-4.51651,2
0.787238,4.86939,8.45982,20.4288,1.95229,-4.08776,2
0.802791,4.72462,8.70987,10.7601,2.79229,-3.31777,2
0.782452,4.24846,8.86779,6.30632,3.87729,-1.91777,2
0.795613,4.10489,9.04606,1.03884,3.50104,-1.35777,2
0.843469,4.05942,9.16451,-5.0074,2.11854,-1.26152,2
0.921236,4.53918,8.96231,-33.7861,-2.25644,-0.062777,2
0.928415,4.733,8.79482,-50.026,-3.53394,-0.0190272,2
0.912861,4.88494,8.65125,-70.8159,-4.91644,-0.185277,2
0.894915,4.97228,8.55434,-97.1096,-6.30768,-0.771525,2
0.904486,4.85384,8.49212,-125.223,-6.87643,-1.42777,2
0.908076,4.57507,8.52443,-151.377,-6.26394,-1.73402,2
0.887737,3.87398,8.74576,-172.849,-5.04769,-1.50652,2
0.869791,2.75294,8.99461,-185.248,-3.11394,-1.27027,2
0.854237,1.54337,9.29731,-187.821,-1.46895,-0.605276,2
0.896111,0.429511,9.64187,-178.782,-0.0427017,0.470971,2
1.05882,-0.312263,10.2831,-108.213,3.26479,4.03221,2
1.08395,0.0825523,10.3298,-88.8321,2.94104,4.78471,2
1.07916,0.591027,10.3119,-77.3872,2.19729,5.16971,2
1.04686,1.15095,10.2939,-77.9209,0.692296,5.10846,2
1.01456,1.42134,10.1396,-86.2159,-0.6027,5.02971,2
0.970289,1.23709,9.99123,-96.4621,-2.23895,5.37096,2
0.9332,0.83988,9.92781,-107.627,-3.94519,5.51096,2
0.937986,0.222532,9.9326,-117.217,-5.45894,5.23096,2
0.960718,-0.541974,9.92542,-121.155,-6.18518,4.89846,2
0.965504,-1.15813,9.91585,-117.917,-6.08894,4.54846,2
0.953539,-1.96929,9.75792,-82.2871,-3.19269,5.35346,2
0.928415,-2.10568,9.74596,-66.1522,-1.4777,5.47596,2
0.914058,-2.11406,9.76031,-51.7585,-0.287702,5.43221,2
0.960718,-2.11525,9.75912,-38.861,0.832296,5.42345,2
1.01097,-2.17986,9.78664,-26.9348,2.31104,5.17846,2
0.917647,-2.05543,9.94098,-17.6511,3.17729,4.79346,2
0.947557,-1.90828,9.93619,-13.0136,2.25854,5.04721,2
1.0002,-1.98604,9.9673,-8.08739,2.28479,4.93346,2
0.945164,-2.03031,10.0463,-3.17865,2.37229,4.56596,2
0.914058,-1.91067,10.1264,0.828837,2.20604,3.93596,2
0.879362,-1.63549,10.1456,5.87757,1.23479,1.88847,2
0.88654,-1.59482,10.0869,5.96507,0.736046,1.24097,2
0.888933,-1.57687,10.0307,5.42257,0.219797,0.575971,2
0.882951,-1.53858,10.0104,4.84508,-0.322701,0.0597225,2
0.881755,-1.49073,9.98524,4.50383,-0.506451,-0.237777,2
0.880558,-1.45603,9.9338,4.25883,-0.69895,-0.482776,2
0.888933,-1.45125,9.8656,3.90008,-0.89145,-0.727775,2
0.887737,-1.43689,9.84766,3.65508,-0.9352,-0.885275,2
0.887737,-1.3663,9.84766,3.96133,-0.9177,-0.876525,2
0.899701,-1.28255,9.85723,4.44258,-0.7427,-0.692776,2
0.899701,-1.24068,9.91106,5.14258,0.018548,-0.176527,2
0.892522,-1.21555,9.96371,5.16007,0.149797,0.0159726,2
0.90329,-1.18086,9.96969,5.08133,0.342297,0.278472,2
0.902094,-1.17009,9.95533,4.67883,0.342297,0.549721,2
0.905683,-1.20479,9.9673,4.11883,0.0972977,0.680971,2
0.892522,-1.22512,9.99481,3.52383,-0.208951,0.724721,2
0.902094,-1.21795,10.0259,2.89383,-0.296452,0.79472,2
0.908076,-1.20479,10.0163,2.10633,-0.453951,0.82097,2
0.898504,-1.27178,9.9673,1.04759,-0.83895,0.672221,2
0.897308,-1.34118,9.96132,0.18134,-1.41645,0.392222,2
0.943968,-1.29093,9.90987,0.706339,-1.80145,0.365972,2
0.930808,-1.31127,9.88115,0.881338,-1.88895,0.322222,2
0,0,0,0,0,0,2
0,0,0,0,0,0,2
0,0,0,0,0,0,2
0,0,0,0,0,0,2
0,0,0,0,0,0,2
0,0,0,0,0,0,2
0,0,0,0,0,0,2
0,0,0,0,0,0,2
0,0,0,0,0,0,2
0,0,0,0,0,0,2
0,0,0,0,0,0,2
0,0,0,0,0,0,2
0,0,0,0,0,0,2
0,0,0,0,0,0,2
0,0,0,0,0,0,2
0,0,0,0,0,0,2
0,0,0,0,0,0,2
0,0,0,0,0,0,2
0,0,0,0,0,0,2
0,0,0,0,0,0,2
0,0,0,0,0,0,2
0,0,0,0,0,0,2
0,0,0,0,0,0,2
0,0,0,0,0,0,2
0,0,0,0,0,0,2
0,0,0,0,0,0,2
0,0,0,0,0,0,2
0,0,0,0,0,0,2
0,0,0,0,0,0,2
0,0,0,0,0,0,2
0,0,0,0,0,0,2
0,0,0,0,0,0,2
0,0,0,0,0,0,2
0,0,0,0,0,0,2
0,0,0,0,0,0,2
0,0,0,0,0,0,2
0,0,0,0,0,0,2
0,0,0,0,0,0,2
0,0,0,0,0,0,2
0,0,0,0,0,0,2
0,0,0,0,0,0,2
0,0,0,0,0,0,2
0,0,0,0,0,0,2
0,0,0,0,0,0,2
0,0,0,0,0,0,2
0,0,0,0,0,0,2
0,0,0,0,0,0,2
0,0,0,0,0,0,2
0,0,0,0,0,0,2
0,0,0,0,0,0,2
0,0,0,0,0,0,2
0,0,0,0,0,0,2
0,0,0,0,0,0,2
0,0,0,0,0,0,2
0,0,0,0,0,0,2
0,0,0,0,0,0,2
0,0,0,0,0,0,2
0,0,0,0,0,0,2
0,0,0,0,0,0,2
0,0,0,0,0,0,2
0,0,0,0,0,0,2
0,0,0,0,0,0,2
0,0,0,0,0,0,2
0,0,0,0,0,0,2
0,0,0,0,0,0,2
0,0,0,0,0,0,2
0,0,0,0,0,0,2
0,0,0,0,0,0,2
0,0,0,0,0,0,2
0,0,0,0,0,0,2
0,0,0,0,0,0,2
0,0,0,0,0,0,2
0,0,0,0,0,0,2
0,0,0,0,0,0,2
0,0,0,0,0,0,2
0,0,0,0,0,0,2
0,0,0,0,0,0,2
0,0,0,0,0,0,2
0,0,0,0,0,0,2
0,0,0,0,0,0,2
0,0,0,0,0,0,2
0,0,0,0,0,0,2
0,0,0,0,0,0,2
0,0,0,0,0,0,2
0,0,0,0,0,0,2
0,0,0,0,0,0,2
0,0,0,0,0,0,2
0,0,0,0,0,0,2
0,0,0,0,0,0,2
0,0,0,0,0,0,2
0,0,0,0,0,0,2
0,0,0,0,0,0,2
0,0,0,0,0,0,2
0,0,0,0,0,0,2
0,0,0,0,0,0,2
0,0,0,0,0,0,2
0,0,0,0,0,0,2
0,0,0,0,0,0,2
0,0,0,0,0,0,2
0,0,0,0,0,0,2
0,0,0,0,0,0,2
0,0,0,0,0,0,2
0,0,0,0,0,0,2
0,0,0,0,0,0,2
0,0,0,0,0,0,2
0,0,0,0,0,0,2
0,0,0,0,0,0,2
0,0,0,0,0,0,2
0,0,0,0,0,0,2
0,0,0,0,0,0,2
0,0,0,0,0,0,2
0,0,0,0,0,0,2
0,0,0,0,0,0,2
0,0,0,0,0,0,2
0,0,0,0,0,0,2
0,0,0,0,0,0,2
0,0,0,0,0,0,2
0,0,0,0,0,0,2
0,0,0,0,0,0,2
0,0,0,0,0,0,2
0,0,0,0,0,0,2
1.05763,-4.70668,10.1324,85.9311,7.22853,2.87721,2
0.967896,-4.2676,10.3609,135.167,10.0285,2.56221,2
0.942772,-3.34157,10.3681,179.617,11.0085,1.35472,2
1.06002,-2.15474,10.1432,215.151,11.0435,0.724721,2
1.03011,-0.0490528,10.1707,229.413,9.75727,-1.18277,2
0.926022,1.57567,10.2496,222.991,8.11227,-3.09902,2
0.837487,2.35095,9.9972,205.806,6.44103,-3.83402,2
0.777667,2.82951,9.68853,179.153,3.59729,-4.13151,2
0.736989,2.68116,9.53898,153.052,1.05979,-4.43776,2
0.72981,2.44307,9.533,132.796,-0.926449,-4.98026,2
0.782452,2.61057,9.33918,110.204,-3.00019,-6.51151,2
0.764506,2.93719,9.34397,105.899,-2.78144,-6.63401,2
0.814755,3.24347,9.21595,103.317,-2.0027,-5.92526,2
0.85663,3.60957,9.24586,96.7898,-1.64395,-5.21651,2
0.818345,3.67777,9.25064,89.5361,-1.0577,-4.42026,2
0.783649,3.70409,9.29372,81.2323,-0.69895,-3.98277,2
0.710668,3.73639,9.30568,74.3373,-0.322701,-3.84277,2
0.722632,3.91944,9.16809,67.5999,-0.208951,-3.37027,2
0.731007,3.96969,9.04486,59.8649,-0.348951,-3.37027,2
0.668793,3.97208,8.98744,54.0637,-0.515201,-3.70277,2
0.696311,4.02951,9.39302,41.8487,-4.12019,-5.26901,2
0.794416,3.91705,9.42173,38.55,-5.35394,-5.54901,2
0.878165,3.98524,9.26022,34.5775,-6.68393,-5.42651,2
0.910469,4.09292,9.06042,28.1725,-8.24143,-5.50526,2
0.94995,4.34058,8.80558,20.6388,-9.33518,-5.82026,2
1.0325,4.44466,8.48853,12.1426,-10.0789,-5.81151,2
1.03609,4.71266,8.2325,2.04509,-10.3939,-5.76776,2
1.05404,4.93041,8.07098,-9.84613,-10.4114,-5.64526,2
1.0672,5.08714,7.92981,-22.6911,-9.97392,-5.27776,2
1.09113,5.30967,7.80538,-37.7323,-9.34393,-4.87526,2
0.96311,5.36231,8.10329,-94.5896,-4.71519,-4.47276,2
0.958325,5.09312,8.31266,-114.076,-2.73769,-4.23652,2
0.930808,4.37647,8.81037,-127.087,0.219797,-3.37027,2
0.844666,3.00897,9.15613,-126.221,4.49854,-1.63777,2
0.863809,1.64746,9.44925,-112.221,7.35103,0.96097,2
0.93679,1.1653,9.7663,-92.1309,8.81227,2.36972,2
0.896111,1.27298,9.97448,-72.3997,9.80976,2.83346,2
0.884147,1.46082,10.0857,-53.1848,9.26727,3.59471,2
0.951146,2.25643,10.0726,-41.0835,8.22602,4.55721,2
0.971485,3.12263,9.92781,-42.4048,6.81728,5.44971,2
0.818345,3.80459,9.44925,-96.2434,-0.523951,6.96345,2
0.808774,3.46839,9.48634,-122.66,-2.95644,6.7972,2
0.794416,2.71825,9.53061,-146.661,-4.84644,6.36845,2
0.808774,1.94417,9.53061,-162.804,-5.54644,6.2547,2
0.802791,1.32323,9.53778,-171.782,-5.36269,6.4472,2
0.811166,0.80997,9.51146,-176.017,-5.12644,6.85845,2
0.807577,0.354137,9.47557,-175.264,-4.20769,7.5322,2
0.825523,-0.0179462,9.54855,-172.928,-3.76144,8.15345,2
0.875773,-0.485743,9.63111,-167.521,-2.79019,8.59095,2
0.891326,-0.879362,9.76869,-160.494,-1.8802,9.08094,2
1.07916,-1.74317,9.86082,-139.722,-0.7602,9.74594,2
1.03729,-2.14516,9.97926,-127.822,1.89104,8.9847,2
0.863809,-2.17986,9.92183,-127.035,-1.55645,9.17719,2
0.960718,-2.78046,9.85603,-121.47,-3.44644,9.02845,2
0.970289,-3.31645,9.87756,-110.086,-3.84019,8.08345,2
0.934397,-3.65025,9.98046,-95.9109,-4.19894,7.1122,2
0.939182,-3.85962,10.0678,-80.9047,-4.94269,6.07096,2
0.961914,-4.0319,10.0917,-64.8747,-5.31894,4.84596,2
0.947557,-4.14795,10.1037,-47.8998,-5.05644,3.50721,2
0.900897,-4.09531,10.0128,-31.1436,-4.58394,2.15097,2
0.957129,-3.40379,9.54855,8.17007,-3.16644,-0.911525,2
0.989432,-3.1346,9.43729,15.9925,-2.53644,-1.41027,2
1.0002,-2.93839,9.35115,22.4763,-1.52145,-1.58527,2
0.984646,-2.81037,9.34516,28.2863,-0.287702,-1.63777,2
0.977468,-2.72782,9.36789,33.2388,0.832296,-1.66402,2
0.977468,-2.68235,9.42173,37.605,1.76854,-1.51527,2
0.959521,-2.56869,9.51386,42.61,3.02854,-1.16527,2
0.945164,-2.37727,9.6,47.5275,4.15729,-0.719025,2
0.934397,-2.132,9.67298,51.6837,5.33853,-0.185277,2
0.921236,-1.8999,9.72443,54.0462,6.30978,0.400972,2
0.896111,-1.23709,9.82133,50.3887,7.70103,1.52972,2
0.881755,-1.03609,9.79382,44.6487,7.21103,1.86222,2
0.854237,-1.02293,9.88115,37.2637,6.18728,2.02847,2
0.832702,-1.05763,10.0331,29.9225,5.10228,2.11597,2
0.824327,-1.06122,10.1767,22.8788,3.99979,2.14222,2
0.808774,-1.0672,10.2664,16.0538,2.71354,2.12472,2
0.788435,-1.16291,10.27,9.53506,1.40979,2.01972,2
0.782452,-1.32921,10.1827,3.85633,-0.0427017,1.80097,2
0.764506,-1.43569,10.1025,0.470089,-1.0052,1.52972,2
0.782452,-1.51346,10.0379,-0.719907,-1.87145,1.45972,2
0.836291,-1.62592,9.9314,1.80009,-2.67644,1.08347,2
0.859023,-1.58764,9.82851,2.76258,-2.48394,0.85597,2
0.882951,-1.53499,9.77348,3.40133,-2.1602,0.610971,2
0.905683,-1.52064,9.734,3.65508,-1.71395,0.505971,2
0.912861,-1.52303,9.72323,3.45383,-1.0577,0.427221,2
0.923629,-1.49073,9.71485,2.64008,-0.558951,0.287222,2
0.921236,-1.49432,9.72682,1.81759,-0.165201,0.225972,2
0.924825,-1.53499,9.73878,1.32759,0.246047,0.208472,2
0.926022,-1.53858,9.78185,1.17009,0.613546,0.0159726,2
0.93679,-1.51107,9.85244,1.43259,0.884795,-0.0977771,2
0.897308,-1.48116,9.9326,1.53759,0.771046,-0.351526,2
0.887737,-1.42612,9.95294,1.73884,0.613546,-0.465276,2
0.88654,-1.39382,9.95294,1.95759,0.447297,-0.596526,2
0.885344,-1.34596,9.96849,2.08883,0.377297,-0.666526,2
0.875773,-1.32084,9.96371,1.88759,0.184798,-0.771525,2
0.867398,-1.29093,9.93739,1.37134,-0.095202,-0.867775,2
0.854237,-1.27537,9.91824,0.662588,-0.182702,-0.780275,2
0,0,0,0,0,0,2
0,0,0,0,0,0,2
0,0,0,0,0,0,2
0,0,0,0,0,0,2
0,0,0,0,0,0,2
0,0,0,0,0,0,2
0,0,0,0,0,0,2
0,0,0,0,0,0,2
0,0,0,0,0,0,2
0,0,0,0,0,0,2
0,0,0,0,0,0,2
0,0,0,0,0,0,2
0,0,0,0,0,0,2
0,0,0,0,0,0,2
0,0,0,0,0,0,2
0,0,0,0,0,0,2
0,0,0,0,0,0,2
0,0,0,0,0,0,2
0,0,0,0,0,0,2
0,0,0,0,0,0,2
0,0,0,0,0,0,2
0,0,0,0,0,0,2
0,0,0,0,0,0,2
0,0,0,0,0,0,2
0,0,0,0,0,0,2
0,0,0,0,0,0,2
0,0,0,0,0,0,2
0,0,0,0,0,0,2
0,0,0,0,0,0,2
0,0,0,0,0,0,2
0,0,0,0,0,0,2
0,0,0,0,0,0,2
0,0,0,0,0,0,2
0,0,0,0,0,0,2
0,0,0,0,0,0,2
0,0,0,0,0,0,2
0,0,0,0,0,0,2
0,0,0,0,0,0,2
0,0,0,0,0,0,2
0,0,0,0,0,0,2
0,0,0,0,0,0,2
0,0,0,0,0,0,2
0,0,0,0,0,0,2
0,0,0,0,0,0,2
0,0,0,0,0,0,2
0,0,0,0,0,0,2
0,0,0,0,0,0,2
0,0,0,0,0,0,2
0,0,0,0,0,0,2
0,0,0,0,0,0,2
0,0,0,0,0,0,2
0,0,0,0,0,0,2
0,0,0,0,0,0,2
0,0,0,0,0,0,2
0,0,0,0,0,0,2
0,0,0,0,0,0,2
0,0,0,0,0,0,2
0,0,0,0,0,0,2
0,0,0,0,0,0,2
0,0,0,0,0,0,2
0,0,0,0,0,0,2
0,0,0,0,0,0,2
0,0,0,0,0,0,2
0,0,0,0,0,0,2
0,0,0,0,0,0,2
0,0,0,0,0,0,2
0,0,0,0,0,0,2
0,0,0,0,0,0,2
0,0,0,0,0,0,2
0,0,0,0,0,0,2
0,0,0,0,0,0,2
0,0,0,0,0,0,2
0,0,0,0,0,0,2
0,0,0,0,0,0,2
0,0,0,0,0,0,2
0,0,0,0,0,0,2
0,0,0,0,0,0,2
0,0,0,0,0,0,2
0,0,0,0,0,0,2
0,0,0,0,0,0,2
0,0,0,0,0,0,2
0,0,0,0,0,0,2
0,0,0,0,0,0,2
0,0,0,0,0,0,2
0,0,0,0,0,0,2
0,0,0,0,0,0,2
0,0,0,0,0,0,2
0,0,0,0,0,0,2
0,0,0,0,0,0,2
0,0,0,0,0,0,2
0,0,0,0,0,0,2
0,0,0,0,0,0,2
0,0,0,0,0,0,2
0,0,0,0,0,0,2
0,0,0,0,0,0,2
0,0,0,0,0,0,2
0,0,0,0,0,0,2
0,0,0,0,0,0,2
0,0,0,0,0,0,2
0,0,0,0,0,0,2
0,0,0,0,0,0,2
0,0,0,0,0,0,2
0,0,0,0,0,0,2
1.01695,-3.87517,10.0259,53.0662,4.07854,1.94097,2
0.948754,-4.68155,10.2245,97.6823,7.61353,2.77221,2
0.957129,-0.693918,10.1384,198.272,8.73352,0.138472,2
0.859023,0.841076,10.0391,198.806,7.74478,-0.876525,2
0.80638,1.71206,10.0128,187.658,6.46728,-1.33152,2
0.796809,2.14516,9.89551,165.293,3.93854,-1.80402,2
0.842273,1.7671,9.82971,144.232,2.52979,-2.27652,2
0.769292,1.24546,9.7651,137.486,1.83854,-2.11902,2
0.745364,1.1007,9.81655,132.91,0.963545,-2.25902,2
0.714257,1.11027,9.94456,131.046,0.972295,-3.84277,2
0.660419,1.38784,9.82492,135.001,0.884795,-4.93651,2
0.771685,2.13918,9.67776,134.196,-0.331451,-5.45276,2
0.72981,3.4648,9.5318,107.911,-3.42894,-4.90151,2
0.747756,3.48275,9.54616,95.9586,-4.30394,-4.76151,2
0.731007,3.2997,9.54736,87.2961,-4.57519,-4.64776,2
0.697507,3.265,9.45763,81.3024,-4.96019,-4.96276,2
0.727417,3.32243,9.42054,75.1686,-5.38019,-5.57526,2
0.703489,3.36431,9.30449,71.9574,-5.14394,-6.10901,2
0.756131,3.83091,9.08195,65.9549,-5.64269,-6.40651,2
0.774077,4.14317,8.88694,57.4587,-5.88769,-6.44151,2
0.770488,4.20179,8.79123,49.4875,-5.66894,-6.45901,2
0.800399,4.19102,8.69551,43.765,-5.19644,-6.29276,2
0.876969,4.46141,8.64646,19.1688,-5.14394,-7.51776,2
0.900897,4.54636,8.50289,6.87507,-5.28394,-7.53526,2
0.952343,4.56311,8.25643,-8.50739,-5.41519,-7.79775,2
1.00618,4.79162,8.04227,-25.6836,-5.60769,-7.824,2
1.0014,5.28096,7.99561,-45.0735,-5.94893,-7.44776,2
0.997807,5.63629,8.04107,-66.6772,-6.08894,-6.48526,2
0.978664,5.75234,8.04706,-91.5096,-5.86144,-5.63651,2
0.958325,5.75473,8.04826,-119.37,-5.26644,-5.32151,2
0.957129,5.57408,8.01954,-146.013,-3.72644,-4.73526,2
0.942772,5.07517,8.13679,-169.332,-1.52145,-3.61527,2
0.764506,2.20738,9.25184,-205.382,5.81978,3.17471,2
0.672383,0.811166,9.78305,-196.851,7.29853,5.94846,2
0.660419,-0.087338,10.1946,-177.653,8.36602,8.65219,2
0.738185,-0.474975,10.4614,-152.602,8.76852,11.0759,2
0.759721,-0.392423,10.6158,-132.118,7.93728,13.0272,2
0.747756,-0.262014,10.5715,-115.983,6.57228,14.0597,2
0.7334,0.288335,10.4758,-109.937,4.28853,14.2347,2
0.701097,0.85663,10.398,-118.127,0.884795,13.0972,2
0.679561,0.973878,10.1695,-132.398,-2.6327,11.9159,2
0.707079,0.563509,10.1073,-147.133,-6.51768,11.6709,2
1.04327,-2.59023,9.95533,-167.109,-14.5502,6.9722,2
1.1342,-3.5342,10.0295,-151.421,-12.6427,4.84596,2
1.05045,-3.81775,9.94098,-134.227,-13.3514,3.76971,2
1.08754,-4.03908,9.81894,-111.005,-12.8177,3.27971,2
1.05164,-4.15992,9.71605,-83.4771,-10.9714,2.56221,2
1.00379,-4.10489,9.60957,-54.8998,-8.54768,1.97597,2
1.01097,-3.87158,9.466,-28.0111,-6.02768,1.42472,2
1.02532,-3.58445,9.38345,-4.7099,-3.42894,1.04847,2
0.985843,-3.13699,9.40379,13.2101,-1.18895,0.733471,2
1.0014,-2.77567,9.42891,26.2038,0.639796,0.759721,2
0.971485,-1.94536,9.53061,45.4362,6.18728,1.44222,2
0.912861,-1.80658,9.61436,47.3262,7.42978,1.40722,2
0.868594,-1.55294,9.74237,47.4487,8.10353,1.18847,2
0.854237,-1.35194,9.87637,45.5062,8.33978,1.12722,2
0.844666,-1.21436,9.98405,41.63,8.14727,1.16222,2
0.818345,-1.04925,10.0845,36.6425,7.53478,1.21472,2
0.800399,-0.909272,10.148,30.5963,6.78228,1.37222,2
0.787238,-0.860219,10.1707,23.6925,5.70603,1.45097,2
0.78006,-0.888933,10.1803,16.6138,4.62979,1.45097,2
0.745364,-0.930808,10.1982,10.2613,3.47479,1.37222,2
0.762114,-1.19761,10.148,-0.702408,0.526046,1.33722,2
0.769292,-1.27657,10.0893,-1.5774,-0.182702,1.32847,2
0.764506,-1.34955,10.0439,-1.58615,-0.8302,1.34597,2
0.765703,-1.38903,10.0175,-1.04366,-1.3377,1.44222,2
0.770488,-1.39143,9.98046,-0.0986595,-1.45145,1.66097,2
0.786041,-1.38185,9.96251,0.793839,-1.6877,1.81847,2
0.801595,-1.37587,9.93021,1.44134,-1.6002,1.89722,2
0.824327,-1.38305,9.87876,1.69509,-1.43395,1.88847,2
0.831505,-1.38066,9.82492,1.53759,-1.2327,1.75722,2
0.836291,-1.38305,9.80458,1.16134,-0.777699,1.61722,2
0.879362,-1.468,9.80458,-0.413659,-0.278951,1.00472,2
0.898504,-1.49432,9.8668,-0.614908,-0.086452,0.85597,2
0.894915,-1.49073,9.90508,-0.107409,0.184798,0.680971,2
0.900897,-1.4668,9.92542,0.461339,0.342297,0.418471,2
0.896111,-1.46201,9.91465,0.653838,0.307297,0.0684724,2
0.876969,-1.44646,9.95653,0.916338,0.202297,-0.185277,2
0.868594,-1.37946,9.97687,1.14384,0.359797,-0.509026,2
0.868594,-1.34237,9.98285,0.863837,0.193548,-0.719025,2
0.843469,-1.35314,9.97448,0.242589,-0.138952,-0.832775,2
0.843469,-1.34596,9.95055,-0.116159,-0.322701,-0.955275,2
0,0,0,0,0,0,2
0,0,0,0,0,0,2
0,0,0,0,0,0,2
0,0,0,0,0,0,2
0,0,0,0,0,0,2
0,0,0,0,0,0,2
0,0,0,0,0,0,2
0,0,0,0,0,0,2
0,0,0,0,0,0,2
0,0,0,0,0,0,2
0,0,0,0,0,0,2
0,0,0,0,0,0,2
0,0,0,0,0,0,2
0,0,0,0,0,0,2
0,0,0,0,0,0,2
0,0,0,0,0,0,2
0,0,0,0,0,0,2
0,0,0,0,0,0,2
0,0,0,0,0,0,2
0,0,0,0,0,0,2
0,0,0,0,0,0,2
0,0,0,0,0,0,2
0,0,0,0,0,0,2
0,0,0,0,0,0,2
0,0,0,0,0,0,2
0,0,0,0,0,0,2
0,0,0,0,0,0,2
0,0,0,0,0,0,2
0,0,0,0,0,0,2
0,0,0,0,0,0,2
0,0,0,0,0,0,2
0,0,0,0,0,0,2
0,0,0,0,0,0,2
0,0,0,0,0,0,2
0,0,0,0,0,0,2
0,0,0,0,0,0,2
0,0,0,0,0,0,2
0,0,0,0,0,0,2
0,0,0,0,0,0,2
0,0,0,0,0,0,2
0,0,0,0,0,0,2
0,0,0,0,0,0,2
0,0,0,0,0,0,2
0,0,0,0,0,0,2
0,0,0,0,0,0,2
0,0,0,0,0,0,2
0,0,0,0,0,0,2
0,0,0,0,0,0,2
0,0,0,0,0,0,2
0,0,0,0,0,0,2
0,0,0,0,0,0,2
0,0,0,0,0,0,2
0,0,0,0,0,0,2
0,0,0,0,0,0,2
0,0,0,0,0,0,2
0,0,0,0,0,0,2
0,0,0,0,0,0,2
0,0,0,0,0,0,2
0,0,0,0,0,0,2
0,0,0,0,0,0,2
0,0,0,0,0,0,2
0,0,0,0,0,0,2
0,0,0,0,0,0,2
0,0,0,0,0,0,2
0,0,0,0,0,0,2
0,0,0,0,0,0,2
0,0,0,0,0,0,2
0,0,0,0,0,0,2
0,0,0,0,0,0,2
0,0,0,0,0,0,2
0,0,0,0,0,0,2
0,0,0,0,0,0,2
0,0,0,0,0,0,2
0,0,0,0,0,0,2
0,0,0,0,0,0,2
0,0,0,0,0,0,2
0,0,0,0,0,0,2
0,0,0,0,0,0,2
0,0,0,0,0,0,2
0,0,0,0,0,0,2
0,0,0,0,0,0,2
0,0,0,0,0,0,2
0,0,0,0,0,0,2
0,0,0,0,0,0,2
0,0,0,0,0,0,2
0,0,0,0,0,0,2
0,0,0,0,0,0,2
0,0,0,0,0,0,2
0,0,0,0,0,0,2
0,0,0,0,0,0,2
0,0,0,0,0,0,2
0,0,0,0,0,0,2
0,0,0,0,0,0,2
0,0,0,0,0,0,2
0,0,0,0,0,0,2
0,0,0,0,0,0,2
0,0,0,0,0,0,2
0,0,0,0,0,0,2
0,0,0,0,0,0,2
0,0,0,0,0,0,2
0,0,0,0,0,0,2
0,0,0,0,0,0,2
0,0,0,0,0,0,2
0,0,0,0,0,0,2
0,0,0,0,0,0,2
0,0,0,0,0,0,2
0,0,0,0,0,0,2
0,0,0,0,0,0,2
0,0,0,0,0,0,2
0,0,0,0,0,0,2
0,0,0,0,0,0,2
0,0,0,0,0,0,2
0,0,0,0,0,0,2
0,0,0,0,0,0,2
0,0,0,0,0,0,2
0,0,0,0,0,0,2
0,0,0,0,0,0,2
0,0,0,0,0,0,2
0.97986,-2.61894,10.0175,28.6625,1.96979,1.43347,2
1.00738,-3.36311,9.85005,58.6399,4.82228,2.50972,2
0.959521,-3.1657,10.0499,90.0173,6.81728,2.59721,2
0.80997,-2.26002,10.2233,117.693,8.28727,2.04597,2
0.827916,-1.52183,10.1025,140.347,9.10102,2.57097,2
0.862612,-0.850648,10.1109,156.272,9.01352,3.09596,2
0.842273,-0.563509,10.0451,168.732,9.31102,3.60346,2
0.863809,-0.388834,10.0128,180.483,9.87102,3.72596,2
0.868594,0.141176,10.1073,188.122,10.0548,2.70222,2
0.656829,2.02672,10.1324,177.657,6.87853,-0.981524,2
0.579063,2.29232,10.1049,166.982,4.67353,-1.80402,2
0.575474,2.51366,10.1803,153.91,1.74229,-2.58277,2
0.561116,2.69192,10.1515,140.286,-1.4252,-4.00901,2
0.586241,2.92283,10.057,128.526,-4.27769,-4.93651,2
0.59342,3.04367,9.86321,116.477,-6.82393,-5.70651,2
0.604187,3.06401,9.67657,105.155,-9.17768,-6.65151,2
0.641276,3.11426,9.40857,96.0635,-11.0939,-7.13276,2
0.625723,3.32841,9.18006,86.9724,-12.2752,-7.83275,2
0.660419,3.59402,8.96829,76.8574,-13.2902,-8.4015,2
0.848255,4.24367,8.31745,47.86,-12.2577,-9.07525,2
0.915254,4.44227,8.16311,37.3425,-10.8577,-8.874,2
0.917647,4.44108,8.11406,29.1087,-8.60893,-8.4365,2
0.942772,4.50329,8.11047,22.73,-6.37769,-7.63151,2
0.954736,4.49372,8.19661,16.8938,-4.00644,-7.30776,2
0.954736,4.54875,8.28395,11.5213,-2.0377,-6.94026,2
0.930808,4.7342,8.38923,4.06633,-0.523951,-6.53776,2
0.952343,4.89212,8.38445,-5.26114,0.447297,-5.80276,2
1.0002,4.93519,8.36291,-16.4786,1.32229,-4.87526,2
0.952343,5.07996,8.40359,-29.8661,1.80354,-3.94777,2
0.815952,5.45444,8.58544,-88.2546,0.0447979,-1.23527,2
0.751346,4.90409,8.90369,-107.487,0.0360475,-1.00777,2
0.756131,3.85483,9.0341,-111.118,2.07479,1.00472,2
0.815952,2.92642,9.20997,-108.861,3.64979,3.23596,2
0.815952,2.36411,9.45763,-104.801,4.38479,3.80471,2
0.805184,2.26241,9.57727,-100.05,4.84853,3.89221,2
0.838684,2.44905,9.58804,-96.8296,4.68228,4.41721,2
0.861416,2.89172,9.533,-98.8859,4.41978,5.40596,2
0.766899,3.4995,9.57727,-114.522,3.15979,5.5897,2
0.68674,3.75912,9.58205,-140.728,0.902295,4.91596,2
0.680758,2.22891,9.42652,-224.457,-5.86144,6.1497,2
0.71665,0.914058,9.40977,-241.799,-7.45393,6.0622,2
0.798006,-0.490528,9.50548,-246.839,-8.32018,5.78221,2
0.927218,-1.75633,9.65623,-238.282,-8.39893,5.6772,2
1.0337,-2.78405,9.7663,-217.824,-8.06643,5.86971,2
1.11027,-3.46959,9.86321,-188.101,-6.68393,6.31595,2
1.22154,-3.52941,9.90987,-154.649,-4.07644,6.31595,2
1.0983,-2.98504,10.1551,-129.353,-1.9852,5.01221,2
0.941575,-2.32223,10.1228,-119.947,-3.93644,4.78471,2
0.9332,-2.26839,9.94098,-114.75,-5.72144,5.11721,2
0.879362,-3.34516,9.81655,-101.598,-7.93518,3.33221,2
0.92004,-3.89312,9.81416,-93.8721,-8.32018,1.94972,2
0.960718,-4.31067,9.83569,-81.4472,-8.26768,0.488471,2
0.988235,-4.50209,9.76151,-65.3647,-7.85643,-0.649025,2
1.00857,-4.51406,9.66341,-48.1535,-7.35768,-1.48902,2
1.02293,-4.34776,9.53419,-30.3123,-6.24643,-2.00527,2
1.0325,-4.17428,9.37029,-12.8824,-4.89894,-2.03152,2
1.03011,-3.85364,9.25663,3.57633,-3.49019,-1.66402,2
1.00498,-3.48754,9.19561,17.5238,-2.2127,-1.03402,2
1.0002,-3.43609,9.18484,31.165,-0.620201,-0.246527,2
0.985843,-3.06879,9.37507,68.7199,5.46103,2.07222,2
0.97986,-2.8343,9.45045,78.6599,7.09728,2.85971,2
0.94995,-2.54476,9.52821,86.8411,8.74227,3.62971,2
0.930808,-2.13799,9.57727,92.2398,9.96727,4.30346,2
0.916451,-1.73001,9.58564,93.8236,10.851,4.80221,2
0.922433,-1.35075,9.60359,91.0673,11.2448,5.25721,2
0.87338,-1.01456,9.68375,85.0298,11.2798,5.49346,2
0.817148,-0.717846,9.80937,75.2911,10.6935,5.57221,2
0.818345,-0.592223,9.96849,62.3937,9.49477,5.44971,2
0.783649,-0.544367,10.1946,47.7637,7.89353,5.01221,2
0.742971,-0.849451,10.392,4.71383,2.32854,2.46597,2
0.742971,-1.18923,10.3167,-4.2899,0.823546,1.48597,2
0.753739,-1.49791,10.2162,-8.77863,-0.453951,0.663471,2
0.765703,-1.72044,10.1408,-9.83738,-1.6352,-0.089027,2
0.76331,-1.86281,10.0738,-7.35239,-2.30894,-0.395276,2
0.789631,-1.86042,9.9661,-2.9599,-2.72019,-0.447776,2
0.808774,-1.76112,9.88355,1.42384,-3.03519,-0.535276,2
0.801595,-1.60319,9.87996,5.16007,-2.93894,-0.535276,2
0.80997,-1.45005,9.85603,7.75882,-2.5977,-0.421526,2
0.808774,-1.31246,9.7998,8.10007,-2.29145,-0.316526,2
0.850648,-1.20598,9.77228,2.61383,-1.4777,-0.290277,2
0.867398,-1.22154,9.78664,1.22259,-0.821449,-0.141527,2
0.87338,-1.28973,9.77946,0.242589,-0.410201,-0.0802771,2
0.863809,-1.33041,9.7986,-0.299909,-0.235201,-0.264026,2
0.862612,-1.34357,9.85962,-0.0111594,0.0622983,-0.290277,2
0.878165,-1.334,9.9338,0.671338,0.272297,-0.220277,2
0.866201,-1.28973,9.97807,1.33634,0.386047,-0.089027,2
0.861416,-1.30887,9.97089,1.40634,0.307297,0.0422225,2
0.857826,-1.33639,9.95294,1.02134,-0.156451,0.0772225,2
0.849451,-1.33759,9.9649,0.942588,-0.410201,0.112222,2
0.850648,-1.26221,10.0152,1.83509,-1.17145,0.339722,2
0.854237,-1.25145,10.002,1.88759,-1.13645,0.260972,2
0.853041,-1.22752,9.96371,1.46759,-1.18895,0.112222,2
0.845862,-1.22512,9.91824,1.02134,-1.04895,0.0159726,2
0.862612,-1.2335,9.87398,0.452589,-1.11895,-0.0102773,2
0.879362,-1.29691,9.84885,-0.142409,-0.996449,0.120972,2
0.876969,-1.32203,9.84407,-0.509908,-0.9002,0.173472,2
0.882951,-1.34237,9.84526,-0.474908,-0.75145,0.225972,2
0.881755,-1.36989,9.82014,-0.326159,-0.48895,0.322222,2
0.885344,-1.40578,9.81535,-0.308659,-0.436451,0.313472,2
0,0,0,0,0,0,2
0,0,0,0,0,0,2
0,0,0,0,0,0,2
0,0,0,0,0,0,2
0,0,0,0,0,0,2
0,0,0,0,0,0,2
0,0,0,0,0,0,2
0,0,0,0,0,0,2
0,0,0,0,0,0,2
0,0,0,0,0,0,2
0,0,0,0,0,0,2
0,0,0,0,0,0,2
0,0,0,0,0,0,2
0,0,0,0,0,0,2
0,0,0,0,0,0,2
0,0,0,0,0,0,2
0,0,0,0,0,0,2
0,0,0,0,0,0,2
0,0,0,0,0,0,2
0,0,0,0,0,0,2
0,0,0,0,0,0,2
0,0,0,0,0,0,2
0,0,0,0,0,0,2
0,0,0,0,0,0,2
0,0,0,0,0,0,2
0,0,0,0,0,0,2
0,0,0,0,0,0,2
0,0,0,0,0,0,2
0,0,0,0,0,0,2
0,0,0,0,0,0,2
0,0,0,0,0,0,2
0,0,0,0,0,0,2
0,0,0,0,0,0,2
0,0,0,0,0,0,2
0,0,0,0,0,0,2
0,0,0,0,0,0,2
0,0,0,0,0,0,2
0,0,0,0,0,0,2
0,0,0,0,0,0,2
0,0,0,0,0,0,2
0,0,0,0,0,0,2
0,0,0,0,0,0,2
0,0,0,0,0,0,2
0,0,0,0,0,0,2
0,0,0,0,0,0,2
0,0,0,0,0,0,2
0,0,0,0,0,0,2
0,0,0,0,0,0,2
0,0,0,0,0,0,2
0,0,0,0,0,0,2
0,0,0,0,0,0,2
0,0,0,0,0,0,2
0,0,0,0,0,0,2
0,0,0,0,0,0,2
0,0,0,0,0,0,2
0,0,0,0,0,0,2
0,0,0,0,0,0,2
0,0,0,0,0,0,2
0,0,0,0,0,0,2
0,0,0,0,0,0,2
0,0,0,0,0,0,2
0,0,0,0,0,0,2
0,0,0,0,0,0,2
0,0,0,0,0,0,2
0,0,0,0,0,0,2
0,0,0,0,0,0,2
0,0,0,0,0,0,2
0,0,0,0,0,0,2
0,0,0,0,0,0,2
0,0,0,0,0,0,2
0,0,0,0,0,0,2
0,0,0,0,0,0,2
0,0,0,0,0,0,2
0,0,0,0,0,0,2
0,0,0,0,0,0,2
0,0,0,0,0,0,2
0,0,0,0,0,0,2
0,0,0,0,0,0,2
0,0,0,0,0,0,2
0,0,0,0,0,0,2
0,0,0,0,0,0,2
0,0,0,0,0,0,2
0,0,0,0,0,0,2
0,0,0,0,0,0,2
0,0,0,0,0,0,2
0,0,0,0,0,0,2
0,0,0,0,0,0,2
0,0,0,0,0,0,2
0,0,0,0,0,0,2
0,0,0,0,0,0,2
0,0,0,0,0,0,2
0,0,0,0,0,0,2
0,0,0,0,0,0,2
0,0,0,0,0,0,2
0,0,0,0,0,0,2
0,0,0,0,0,0,2
0,0,0,0,0,0,2
0,0,0,0,0,0,2
0,0,0,0,0,0,2
0,0,0,0,0,0,2
0,0,0,0,0,0,2
0.742971,-2.56869,10.6289,25.5038,-14.4452,-1.05152,5
0.675972,-2.77807,11.2905,42.8375,-19.1789,-2.54777,5
0.775274,-2.54955,11.6746,56.9249,-24.5426,-5.17276,5
0.915254,-1.79821,11.7153,64.6161,-30.9214,-8.25275,5
0.908076,-1.0995,11.2941,66.5236,-37.7988,-10.4227,5
0.978664,-0.898504,10.7258,63.9949,-44.8601,-12.2602,5
1.01097,-1.10668,10.4267,62.6561,-50.9413,-14.089,5
0.953539,-1.09352,10.1216,62.1749,-57.5213,-15.7165,5
1.50867,-0.759721,10.1587,53.7924,-76.1587,-20.1702,5
1.64626,-0.111266,10.5787,49.47,-77.6024,-21.7015,5
1.91545,0.51326,9.98524,44.325,-78.9062,-22.6902,5
1.86999,0.177069,9.42532,48.8225,-81.3562,-25.9452,5
1.70369,0.467796,10.1767,44.115,-83.4562,-27.3102,5
2.08056,0.366102,10.392,44.1937,-84.4274,-28.8939,5
2.21934,0.807577,10.4076,45.6462,-88.6187,-29.6727,5
2.50169,1.13061,10.252,45.585,-92.2062,-29.7864,5
2.94437,1.03011,9.64546,45.8037,-94.6212,-29.1214,5
3.01615,1.17129,9.3332,43.485,-93.0724,-28.5264,5
3.73878,1.58883,8.62971,18.2588,-66.2625,-19.3477,5
3.81535,1.69292,8.25045,9.68381,-57.1713,-14.1677,5
3.80937,1.74317,7.89631,2.23758,-48.2551,-9.11025,5
3.73041,1.82453,7.62233,-4.4299,-40.3626,-4.74401,5
3.73161,1.77787,7.48714,-10.7999,-32.1901,-0.771525,5
3.81655,1.54815,7.4656,-16.2074,-23.5626,2.64096,5
3.90987,1.0672,7.55892,-17.5286,-13.1677,5.54596,5
3.99242,0.649651,7.82093,-13.3374,-0.541451,8.36345,5
3.84885,1.4333,7.59601,-9.27738,13.126,11.5222,5
3.55095,2.02074,7.02771,-9.70613,22.9085,13.3597,5
3.05922,1.18445,7.18086,-12.1999,32.9884,9.19469,5
3.21834,0.655633,7.75394,-12.9261,35.6222,8.36345,5
3.29252,0.293121,8.40239,-12.1911,39.6122,8.0922,5
3.32841,0.0921236,9.02333,-9.58363,45.5709,8.35469,5
3.44447,-0.132802,9.62153,-4.4999,52.6584,9.04594,5
3.38943,-0.398405,10.1049,3.12133,60.0609,9.84219,5
3.32961,0.324227,10.0953,6.01757,66.5358,10.4547,5
3.32243,0.468993,9.98883,5.15133,69.4496,10.7697,5
3.12622,0.429511,9.77946,3.97008,69.1871,10.5947,5
2.93839,0.674776,9.6981,-1.41116,65.9671,9.78969,5
2.61296,0.375673,10.3729,-12.2786,55.2921,5.61596,5
2.55553,0.0502492,10.5619,-14.7986,52.8334,4.67096,5
2.50528,-0.120837,10.7151,-15.1749,51.8009,3.89221,5
2.39521,-0.0550349,10.7904,-14.4136,51.5996,3.75221,5
2.32582,0.0945164,10.7497,-14.0374,52.3959,4.15471,5
2.21216,0.245264,10.593,-14.4924,53.9971,4.66221,5
2.07338,0.259621,10.3406,-16.2599,55.3534,4.90721,5
1.8987,0.357727,10.0223,-18.4211,57.2171,4.76721,5
1.71924,0.503689,9.79741,-19.6199,60.3234,4.78471,5
1.57687,0.684347,9.27697,-20.0224,63.1234,4.87221,5
1.3316,0.2668,5.97248,-45.3098,59.0984,4.55721,5
0.997807,-0.552742,6.36849,-43.0785,55.7821,2.43096,5
0.620937,-1.00379,8.10448,-41.0573,50.4621,2.64971,5
0.392423,-0.532403,10.4028,-39.6485,45.3609,3.96221,5
0.338584,0.107677,12.5874,-42.2823,37.9409,6.8147,5
0.489332,-0.117248,13.7503,-46.3423,29.191,10.6997,5
0.649651,-0.454636,13.9501,-49.361,21.0535,12.3447,5
0.658026,-1.04566,13.5864,-47.8473,13.196,11.1547,5
0.604187,-1.38185,12.9284,-41.2848,5.90728,7.2347,5
0.591027,-1.25743,12.0754,-31.5723,-0.270201,2.81596,5
0.732203,-0.9332,10.0965,-11.5524,-11.9952,-0.176527,5
0.825523,-1.00857,9.80219,-7.85114,-13.9727,0.287222,5
0.861416,-0.887737,9.64786,-4.6399,-14.6814,0.750971,5
0.882951,-0.734596,9.54257,-2.4349,-14.1039,1.25847,5
0.849451,-0.624527,9.49112,-1.62115,-12.9314,1.60847,5
0.872184,-0.570688,9.41096,-1.65615,-11.4264,1.84472,5
0.909272,-0.538385,9.30329,-1.83115,-9.02893,2.07222,5
0.973878,-0.664008,9.27816,-1.72615,-6.52643,2.32597,5
1.02652,-0.786041,9.31765,-1.16616,-3.98894,2.30847,5
1.0672,-0.772881,9.40139,-0.466158,-1.2852,2.26472,5
1.19641,-0.911665,9.55573,-0.754908,4.82228,2.78971,5
1.17009,-0.887737,9.67059,-1.20116,5.89853,2.72847,5
1.133,-0.815952,9.73998,-1.14866,6.69478,2.92971,5
1.10189,-0.812363,9.84167,-0.746157,7.03603,3.12221,5
1.05404,-0.880558,9.97687,-0.177409,6.96603,2.71972,5
1.02173,-0.908076,10.1803,-0.0549092,6.35353,1.94972,5
0.981057,-0.88654,10.3573,-0.536158,5.44353,1.10097,5
0.959521,-0.853041,10.453,-1.55116,4.25354,0.225972,5
0.939182,-0.860219,10.4506,-2.5049,3.07229,-0.491526,5
0.932004,-0.891326,10.3681,-2.9249,1.87354,-1.07777,5
0.876969,-0.817148,10.0307,-1.26241,0.184798,-2.78402,5
0.89013,-0.772881,9.9003,-0.667408,-0.0514517,-2.96777,5
0.900897,-0.72981,9.85364,-0.0636592,-0.147702,-2.89777,5
0.900897,-0.732203,9.82971,0.28634,-0.200202,-2.66152,5
0.896111,-0.689132,9.83928,0.32134,-0.226452,-2.41652,5
0.897308,-0.611366,9.88355,0.662588,0.0360475,-1.97902,5
0.888933,-0.531206,9.8979,1.15259,0.499796,-1.42777,5
0.887737,-0.531206,9.92303,1.43259,0.884795,-0.972774,5
0.887737,-0.555135,9.94815,1.35384,1.19104,-0.640275,5
0.885344,-0.540777,9.95294,1.02134,1.59354,-0.430276,5
0.859023,-0.64008,10.0152,-0.238659,1.69854,0.532221,5
0.857826,-0.697507,10.081,-0.422409,1.26104,0.619721,5
0.863809,-0.721436,10.1575,-0.553658,0.972295,0.689721,5
0.884147,-0.741775,10.13,-0.632408,0.368547,0.768471,5
0.894915,-0.752542,10.1145,-0.614908,-0.138952,0.86472,5
0.882951,-0.74656,10.0917,-0.133659,-0.453951,0.92597,5
0.900897,-0.731007,10.0534,0.26009,-0.89145,0.96972,5
0,0,0,0,0,0,5
0,0,0,0,0,0,5
0,0,0,0,0,0,5
0,0,0,0,0,0,5
0,0,0,0,0,0,5
0,0,0,0,0,0,5
0,0,0,0,0,0,5
0,0,0,0,0,0,5
0,0,0,0,0,0,5
0,0,0,0,0,0,5
0,0,0,0,0,0,5
0,0,0,0,0,0,5
0,0,0,0,0,0,5
0,0,0,0,0,0,5
0,0,0,0,0,0,5
0,0,0,0,0,0,5
0,0,0,0,0,0,5
0,0,0,0,0,0,5
0,0,0,0,0,0,5
0,0,0,0,0,0,5
0,0,0,0,0,0,5
0,0,0,0,0,0,5
0,0,0,0,0,0,5
0,0,0,0,0,0,5
0,0,0,0,0,0,5
0,0,0,0,0,0,5
0,0,0,0,0,0,5
0,0,0,0,0,0,5
0,0,0,0,0,0,5
0,0,0,0,0,0,5
0,0,0,0,0,0,5
0,0,0,0,0,0,5
0,0,0,0,0,0,5
0,0,0,0,0,0,5
0,0,0,0,0,0,5
0,0,0,0,0,0,5
0,0,0,0,0,0,5
0,0,0,0,0,0,5
0,0,0,0,0,0,5
0,0,0,0,0,0,5
0,0,0,0,0,0,5
0,0,0,0,0,0,5
0,0,0,0,0,0,5
0,0,0,0,0,0,5
0,0,0,0,0,0,5
0,0,0,0,0,0,5
0,0,0,0,0,0,5
0,0,0,0,0,0,5
0,0,0,0,0,0,5
0,0,0,0,0,0,5
0,0,0,0,0,0,5
0,0,0,0,0,0,5
0,0,0,0,0,0,5
0,0,0,0,0,0,5
0,0,0,0,0,0,5
0,0,0,0,0,0,5
0,0,0,0,0,0,5
0,0,0,0,0,0,5
0,0,0,0,0,0,5
0,0,0,0,0,0,5
0,0,0,0,0,0,5
0,0,0,0,0,0,5
0,0,0,0,0,0,5
0,0,0,0,0,0,5
0,0,0,0,0,0,5
0,0,0,0,0,0,5
0,0,0,0,0,0,5
0,0,0,0,0,0,5
0,0,0,0,0,0,5
0,0,0,0,0,0,5
0,0,0,0,0,0,5
0,0,0,0,0,0,5
0,0,0,0,0,0,5
0,0,0,0,0,0,5
0,0,0,0,0,0,5
0,0,0,0,0,0,5
0,0,0,0,0,0,5
0,0,0,0,0,0,5
0,0,0,0,0,0,5
0,0,0,0,0,0,5
0,0,0,0,0,0,5
0,0,0,0,0,0,5
0,0,0,0,0,0,5
0,0,0,0,0,0,5
0,0,0,0,0,0,5
0,0,0,0,0,0,5
0,0,0,0,0,0,5
0,0,0,0,0,0,5
0,0,0,0,0,0,5
0,0,0,0,0,0,5
0,0,0,0,0,0,5
0,0,0,0,0,0,5
0,0,0,0,0,0,5
0,0,0,0,0,0,5
0,0,0,0,0,0,5
0,0,0,0,0,0,5
0,0,0,0,0,0,5
0,0,0,0,0,0,5
0,0,0,0,0,0,5
0,0,0,0,0,0,5
0,0,0,0,0,0,5
0,0,0,0,0,0,5
0,0,0,0,0,0,5
0,0,0,0,0,0,5
0,0,0,0,0,0,5
0.926022,-0.927218,9.85843,18.7838,-16.6414,1.24097,5
1.08155,-1.02772,10.2353,23.6663,-21.5414,1.84472,5
1.06481,-1.12702,10.7809,33.0638,-25.2601,2.46597,5
1.32682,-0.308674,10.9364,58.7187,-36.6001,2.51847,5
1.19402,-0.143569,10.7127,62.9011,-41.2726,0.77722,5
1.11027,-0.09332,10.3525,64.5549,-48.9113,-1.66402,5
1.25503,0.349352,10.0032,62.1749,-55.3688,-3.71152,5
1.42134,0.660419,10.0367,58.3074,-58.7725,-4.11402,5
1.50748,0.695115,10.3454,51.6049,-60.7938,-4.19276,5
1.74197,0.82672,10.5942,38.8475,-61.8788,-4.45527,5
1.94177,0.918843,10.6253,26.0988,-60.8988,-4.49026,5
2.10688,0.902094,10.2102,17.7688,-58.8775,-3.93902,5
2.03868,0.71665,9.65384,13.3763,-55.3163,-3.50152,5
2.25643,0.282353,8.77208,28.8988,-47.9051,-3.41402,5
2.31386,0.612562,9.1334,36.0387,-45.8663,-3.74652,5
2.50409,0.678365,9.3667,38.9962,-42.2788,-4.54276,5
2.68116,0.825523,9.52941,37.6312,-37.0026,-5.18151,5
2.84147,0.850648,9.58086,32.6438,-31.9101,-5.49651,5
2.93599,1.05882,9.5665,25.67,-27.6226,-5.26901,5
2.95872,1.22393,9.49352,17.5063,-24.2364,-4.69151,5
3.05085,0.99661,9.39182,8.48507,-21.9789,-3.96526,5
3.06401,1.08275,9.27697,-0.396158,-19.4939,-3.36152,5
3.07836,1.12463,9.14177,-8.16613,-17.1489,-2.54777,5
3.07119,0.789631,8.92163,-15.7174,-12.3102,-2.47777,5
3.05324,0.681954,8.83669,-10.8699,-10.9452,-3.19527,5
3.07477,0.698704,8.87737,-4.3249,-9.94767,-4.09651,5
3.08315,0.863809,9.01136,1.27509,-8.74018,-4.89276,5
3.08315,1.0002,9.07358,4.93258,-6.78893,-5.53151,5
3.10229,1.18325,9.0006,5.95632,-4.05894,-6.13526,5
3.08674,1.3663,8.87737,4.89758,-0.812699,-6.45901,5
3.0664,1.29691,8.71346,3.33133,2.21479,-6.43276,5
3.03769,1.2335,8.64766,1.86133,4.95353,-6.31901,5
2.98863,1.31605,8.65842,0.627588,7.98102,-6.08276,5
2.87737,1.133,8.48255,5.58883,17.5885,-4.71776,5
2.80797,1.22991,8.54357,7.88132,20.3535,-4.35026,5
2.82233,1.2682,8.61415,9.36882,23.2585,-3.97402,5
2.82473,1.3651,8.77687,9.47381,26.321,-3.78152,5
2.85105,1.41176,8.99342,8.31882,29.5497,-3.37902,5
2.84865,1.51585,9.27338,6.49882,33.4172,-2.90652,5
2.83669,1.59003,9.52582,5.01133,38.1597,-2.46027,5
2.7984,1.67617,9.77108,3.59383,43.5234,-1.97027,5
2.70867,1.74437,9.95653,2.69258,49.5259,-1.78652,5
2.57468,1.62951,10.0738,1.27509,55.3184,-1.40152,5
2.10209,1.03609,8.58185,-20.1711,60.9534,0.497221,5
1.99442,0.965504,7.76471,-27.4423,60.4109,1.05722,5
1.71565,0.990628,7.5326,-32.6136,59.0721,1.99347,5
1.45603,0.777667,7.86879,-32.2111,57.7596,4.08471,5
1.25503,0.911665,8.83429,-31.1436,55.2746,6.1147,5
1.11745,1.42612,9.92662,-33.8561,52.0721,7.6022,5
1.11266,1.334,10.8981,-41.7748,47.0322,8.86219,5
1.20598,0.939182,11.5741,-50.516,41.8609,9.30844,5
1.21795,0.748953,11.9294,-58.1548,36.8209,9.36969,5
1.17248,0.45344,12.055,-62.871,31.5535,9.22969,5
0.978664,-0.254835,11.3372,-56.4572,19.391,5.47596,5
0.915254,-0.471386,11.0608,-47.436,16.416,3.60346,5
0.960718,-0.562313,10.6816,-38.7035,13.6685,2.07222,5
0.967896,-0.54676,10.2317,-31.7998,11.4023,0.750971,5
0.99661,-0.970289,9.77946,-26.8998,9.04852,-0.062777,5
1.06481,-1.31486,9.47796,-23.3648,6.72103,-1.31402,5
1.04447,-1.14018,9.49232,-16.5661,5.85478,-1.97027,5
1.00498,-0.812363,9.6,-10.1174,5.34728,-0.841525,5
0.984646,-0.378066,9.86799,-7.08114,4.51604,0.383472,5
0.961914,-0.154337,10.0642,-4.73615,4.10479,1.48597,5
0.987039,-0.162712,9.89431,-4.3774,4.69103,0.383472,5
1.01456,-0.175872,9.91944,-3.73865,4.51604,-0.316526,5
0.999003,-0.113659,10.0606,-4.0274,4.15729,-0.447776,5
0.957129,-0.107677,10.2449,-5.09489,3.53604,-0.281527,5
0.983449,-0.106481,10.325,-6.57364,2.72229,-0.0540272,5
0.989432,-0.129212,10.3226,-7.46614,1.89104,0.199722,5
0.97986,-0.238086,10.2556,-6.98489,1.47104,0.383472,5
0.928415,-0.277567,10.2078,-5.55864,1.08604,0.322222,5
0.900897,-0.339781,10.1838,-4.10615,0.508546,0.164722,5
0.876969,-0.315852,10.1503,-2.7324,-0.0514517,0.0684724,5
0.910469,-0.312263,10.0175,-0.0549092,-1.13645,0.672221,5
0.92004,-0.275174,9.9649,-0.0461593,-1.4427,0.654721,5
0.945164,-0.254835,9.92901,-0.702408,-1.5827,0.654721,5
0.943968,-0.234496,9.94337,-0.711158,-1.5127,0.78597,5
0.945164,-0.262014,9.96132,-0.667408,-1.4952,0.96972,5
0.976271,-0.281156,9.93619,-0.641158,-1.57395,1.09222,5
0.969093,-0.39003,9.94217,-0.579908,-1.57395,1.22347,5
0.972682,-0.442672,10.0128,0.26009,-1.71395,1.29347,5
0.975075,-0.413958,10.0786,1.40634,-1.8102,1.27597,5
0.995414,-0.346959,10.1157,2.59633,-1.78395,1.33722,5
1.00857,-0.199801,9.99481,3.30508,-1.9327,1.16222,5
1.0002,-0.137587,9.99481,2.39508,-2.01145,0.99597,5
1.01934,-0.174676,9.99481,0.776339,-2.1252,0.82097,5
1.03131,-0.234496,9.99601,-1.13991,-2.1952,0.505971,5
1.03729,-0.277567,9.9972,-2.4874,-2.0902,0.225972,5
1.04447,-0.278764,9.97687,-3.2749,-1.8627,0.0684724,5
1.08634,-0.410369,9.92303,-3.6424,-1.6527,0.0684724,5
1.10309,-0.454636,9.87756,-3.5024,-1.52145,-0.115277,5
0,0,0,0,0,0,5
0,0,0,0,0,0,5
0,0,0,0,0,0,5
0,0,0,0,0,0,5
0,0,0,0,0,0,5
0,0,0,0,0,0,5
0,0,0,0,0,0,5
0,0,0,0,0,0,5
0,0,0,0,0,0,5
0,0,0,0,0,0,5
0,0,0,0,0,0,5
0,0,0,0,0,0,5
0,0,0,0,0,0,5
0,0,0,0,0,0,5
0,0,0,0,0,0,5
0,0,0,0,0,0,5
0,0,0,0,0,0,5
0,0,0,0,0,0,5
0,0,0,0,0,0,5
0,0,0,0,0,0,5
0,0,0,0,0,0,5
0,0,0,0,0,0,5
0,0,0,0,0,0,5
0,0,0,0,0,0,5
0,0,0,0,0,0,5
0,0,0,0,0,0,5
0,0,0,0,0,0,5
0,0,0,0,0,0,5
0,0,0,0,0,0,5
0,0,0,0,0,0,5
0,0,0,0,0,0,5
0,0,0,0,0,0,5
0,0,0,0,0,0,5
0,0,0,0,0,0,5
0,0,0,0,0,0,5
0,0,0,0,0,0,5
0,0,0,0,0,0,5
0,0,0,0,0,0,5
0,0,0,0,0,0,5
0,0,0,0,0,0,5
0,0,0,0,0,0,5
0,0,0,0,0,0,5
0,0,0,0,0,0,5
0,0,0,0,0,0,5
0,0,0,0,0,0,5
0,0,0,0,0,0,5
0,0,0,0,0,0,5
0,0,0,0,0,0,5
0,0,0,0,0,0,5
0,0,0,0,0,0,5
0,0,0,0,0,0,5
0,0,0,0,0,0,5
0,0,0,0,0,0,5
0,0,0,0,0,0,5
0,0,0,0,0,0,5
0,0,0,0,0,0,5
0,0,0,0,0,0,5
0,0,0,0,0,0,5
0,0,0,0,0,0,5
0,0,0,0,0,0,5
0,0,0,0,0,0,5
0,0,0,0,0,0,5
0,0,0,0,0,0,5
0,0,0,0,0,0,5
0,0,0,0,0,0,5
0,0,0,0,0,0,5
0,0,0,0,0,0,5
0,0,0,0,0,0,5
0,0,0,0,0,0,5
0,0,0,0,0,0,5
0,0,0,0,0,0,5
0,0,0,0,0,0,5
0,0,0,0,0,0,5
0,0,0,0,0,0,5
0,0,0,0,0,0,5
0,0,0,0,0,0,5
0,0,0,0,0,0,5
0,0,0,0,0,0,5
0,0,0,0,0,0,5
0,0,0,0,0,0,5
0,0,0,0,0,0,5
0,0,0,0,0,0,5
0,0,0,0,0,0,5
0,0,0,0,0,0,5
0,0,0,0,0,0,5
0,0,0,0,0,0,5
0,0,0,0,0,0,5
0,0,0,0,0,0,5
0,0,0,0,0,0,5
0,0,0,0,0,0,5
0,0,0,0,0,0,5
0,0,0,0,0,0,5
0,0,0,0,0,0,5
0,0,0,0,0,0,5
0,0,0,0,0,0,5
0,0,0,0,0,0,5
0,0,0,0,0,0,5
0,0,0,0,0,0,5
0,0,0,0,0,0,5
0,0,0,0,0,0,5
0,0,0,0,0,0,5
0,0,0,0,0,0,5
0,0,0,0,0,0,5
0,0,0,0,0,0,5
0,0,0,0,0,0,5
0,0,0,0,0,0,5
0,0,0,0,0,0,5
0,0,0,0,0,0,5
0,0,0,0,0,0,5
0.957129,-0.552742,10.5894,26.2913,-7.78643,1.80097,5
0.93679,-0.600598,10.5775,33.3262,-9.44018,1.87972,5
0.88654,-0.378066,10.6612,39.8537,-11.6539,1.80972,5
0.957129,-0.0430708,10.6935,42.6012,-14.1477,1.47722,5
1.01216,0.137587,10.7174,42.7237,-16.6239,0.82972,5
1.19402,0.104088,10.5942,40.8862,-19.1876,0.409721,5
1.34357,-0.29671,10.2568,42.5312,-24.8839,0.0334725,5
1.29571,-0.247657,10.1025,49.8637,-27.3514,0.164722,5
1.31964,-0.0610169,9.96251,58.2987,-30.6414,0.523471,5
1.34477,0.0945164,9.97448,65.7711,-34.4389,0.138472,5
1.35912,0.106481,10.2544,71.6248,-38.2976,-0.780275,5
1.37587,0.506082,10.5858,74.0224,-41.6138,-2.07527,5
1.42851,1.19402,10.8754,70.9686,-45.1401,-3.37027,5
1.57926,1.51346,11.0046,64.4499,-48.1763,-4.30651,5
1.73719,1.42492,10.9316,56.4524,-51.0201,-4.73526,5
1.92263,1.28495,10.6552,47.3612,-53.4263,-5.21651,5
2.07936,1.4991,9.6993,37.4912,-57.7225,-4.50776,5
2.23848,1.6654,9.73639,38.7337,-58.2388,-4.24527,5
2.43589,1.70847,9.74476,38.2,-57.2588,-4.52526,5
2.54835,1.7324,9.65623,35.9775,-54.7125,-4.75276,5
2.61176,1.83888,9.47677,31.7775,-52.7001,-4.55151,5
2.70867,1.90469,9.21834,28.26,-50.9588,-4.14026,5
2.7673,1.88794,8.99461,26.545,-49.6201,-3.58902,5
2.77926,2.01476,8.82712,26.615,-48.5088,-3.02902,5
2.81755,1.97647,8.70628,26.5188,-47.7913,-3.12527,5
2.78405,2.16909,8.64646,25.6438,-46.2426,-3.41402,5
3.11067,2.52323,8.32223,8.78256,-39.3651,-2.67027,5
3.24347,2.41196,8.14756,1.52884,-36.1363,-2.26777,5
3.24108,2.44546,7.99681,-4.6749,-32.2688,-2.11027,5
3.41575,2.40359,7.83171,-9.23363,-27.7276,-1.97902,5
3.51266,2.08175,7.64148,-10.8349,-23.0901,-2.03152,5
3.59162,1.85563,7.48594,-9.80238,-18.0239,-2.08402,5
3.66819,1.98843,7.20718,-7.92989,-12.2227,-1.98777,5
3.75314,1.85204,6.86381,-4.8849,-6.85018,-1.70777,5
3.84766,1.71685,6.77527,-1.28866,-1.8977,-1.48027,5
3.79143,1.8652,6.85304,1.94009,3.22979,-1.34027,5
3.7005,2.31266,7.08395,-4.35115,17.501,-2.07527,5
3.60239,2.34257,7.37348,-8.88363,22.1735,-2.56527,5
3.54018,2.3007,7.68096,-14.1424,27.091,-2.95027,5
3.42652,2.20618,7.9992,-19.3836,31.9472,-3.23027,5
3.30808,2.23968,8.26361,-24.8173,36.4184,-3.48402,5
3.26142,2.22173,8.42751,-29.6736,40.5222,-3.61527,5
3.24945,2.14636,8.68235,-33.1473,44.2059,-3.58902,5
3.12502,2.00159,8.92762,-35.0023,48.1172,-3.33527,5
3.0999,1.62831,9.1322,-35.8773,51.3984,-2.67902,5
2.99581,1.60319,9.3332,-36.2711,54.7059,-1.69027,5
2.5651,1.92024,9.42293,-40.821,60.6996,4.89846,5
2.28514,2.17507,9.4672,-43.3498,61.7584,7.3572,5
2.0339,2.28634,9.59641,-47.6898,61.7146,9.57094,5
1.88674,2.01476,9.8979,-51.5923,61.3384,10.8397,5
1.74556,1.72642,10.2963,-53.1848,61.5921,11.2597,5
1.56251,1.71565,10.5882,-53.631,62.2396,11.3559,5
1.48594,1.55174,10.8167,-52.0123,62.9746,11.0847,5
1.38664,1.44526,10.8646,-49.011,63.6483,10.1834,5
1.24307,0.788435,10.6361,-49.0548,61.0584,9.30844,5
1.35194,-0.208175,10.2843,-48.6785,57.1121,8.20595,5
0.971485,-0.238086,10.6875,-47.8123,40.7147,8.31095,5
0.87338,-0.00239282,11.3025,-47.1823,34.5022,10.1922,5
0.918843,-0.0442672,11.6961,-48.4423,27.4235,11.4347,5
1.06839,-0.282353,11.6518,-47.3748,21.1847,11.5309,5
1.16171,-0.294317,11.3743,-44.6098,16.0135,10.8047,5
1.19043,-0.545563,11.0728,-38.9135,11.9185,9.22094,5
1.19282,-0.681954,10.7868,-32.0186,8.33102,6.99845,5
1.18564,-0.649651,10.6612,-23.5136,5.39103,4.46971,5
1.18564,-0.583848,10.6313,-14.0636,2.90604,2.56221,5
1.1988,-0.43669,10.6193,-7.79864,0.246047,1.53847,5
1.20239,-0.241675,10.2281,-0.439909,-5.13519,0.79472,5
1.19521,-0.264407,9.9661,0.890087,-5.65144,0.750971,5
1.12821,-0.193819,9.78066,1.78259,-5.61644,0.243472,5
1.10189,-0.108873,9.68135,2.57008,-5.21394,-0.342777,5
1.13659,-0.0825523,9.5988,2.89383,-4.67144,-0.614026,5
1.18205,-0.00957128,9.51744,3.06008,-3.56894,-0.570276,5
1.18804,-0.00598205,9.54736,3.08633,-2.30894,-0.220277,5
1.18086,-0.0813559,9.63469,4.25008,-1.01395,0.173472,5
1.1988,-0.0622133,9.69093,5.16007,0.00979805,0.462221,5
1.2323,-0.0765703,9.71485,5.02883,0.928545,0.567221,5
1.21077,0.0849452,9.89431,5.23008,2.86229,1.13597,5
1.20479,0.157926,10.0439,4.43383,3.03729,1.12722,5
1.20598,0.168694,10.1013,2.74508,2.88854,1.06597,5
1.20718,0.100498,10.0857,0.977588,2.49479,1.02222,5
1.18564,0.118445,10.075,-0.737407,2.04854,0.86472,5
1.18923,0.0430708,10.0833,-1.8924,1.54979,0.689721,5
1.17846,-0.0586241,10.1025,-1.77865,1.05979,0.523471,5
1.17846,-0.0658026,10.081,-0.833657,0.648546,0.374722,5
1.19641,-0.0490528,10.0642,0.15509,0.263547,0.252222,5
1.20479,-0.0574277,10.0487,1.17009,0.0622983,0.217222,5
1.15454,0.135194,9.9972,2.50883,-0.200202,0.164722,5
1.14736,0.199801,9.92183,1.41509,-0.138952,0.138472,5
