timestamp,ax,ay,az,gx,gy,gz,TARGET
413484,-2.498106,-8.356926,-0.616152,-16.059395,-17.302612,74.395967,2
413494,-2.642871,-9.092720,-0.866201,-16.059395,-17.302612,74.395967,2
413504,-2.864206,-8.971882,-0.855434,-18.037033,-17.381363,81.658964,2
413514,-3.122632,-8.815151,-0.869791,-17.065712,-16.130028,83.697882,2
413524,-3.375073,-9.324821,-1.043270,-17.949524,-15.482487,87.600679,2
413534,-3.544964,-9.568893,-1.143768,-17.949524,-15.482487,87.600679,2
413544,-3.756729,-9.699299,-1.166501,-16.978210,-14.248647,83.899145,2
413554,-3.994815,-9.907475,-1.223928,-15.499356,-11.317185,76.373568,2
413564,-4.180258,-10.326217,-1.310070,-15.394348,-9.724564,65.023990,2
413574,-4.503290,-10.502090,-1.432103,-15.394348,-9.724564,65.023990,2
413584,-4.668394,-10.376465,-1.357926,-14.064255,-7.746922,35.718124,2
413593,-4.944765,-10.439881,-1.450049,-12.007850,-6.399321,35.718124,2
413603,-5.197206,-10.390828,-1.505085,-9.435165,-4.902964,27.028739,2
413613,-5.304884,-9.966099,-1.442871,-5.847401,-3.520359,20.929544,2
413623,-5.356331,-9.876369,-1.451246,-2.434652,-2.514038,11.382602,2
413632,-5.356331,-9.876369,-1.512263,-1.157059,-1.612721,2.474450,2
413642,-5.261814,-10.036690,-1.555334,-0.850787,-0.833915,-5.891161,2
413652,-5.261814,-10.036690,-1.555334,-0.316998,-0.247622,-14.003006,2
413662,-5.115852,-10.049851,-1.544566,1.826909,0.802454,-22.604883,2
413672,-4.984245,-9.962513,-1.479959,3.874557,2.018793,-31.565537,2
413682,-4.753338,-9.736389,-1.393818,4.898384,3.025116,-40.053649,2
413692,-4.753338,-9.736389,-1.393818,5.589684,3.900181,-44.752731,2
413703,-4.656429,-9.786636,-1.298105,6.736019,4.976507,-46.275344,2
413713,-4.430307,-9.438484,-1.276570,8.407387,5.746565,-51.797013,2
413724,-4.104885,-9.367893,-1.239481,9.299957,6.499119,-55.253525,2
413734,-3.942173,-9.148952,-1.179661,10.341278,7.015408,-63.645372,2
413745,-3.533000,-9.038879,-1.097108,11.881393,7.356682,-66.200533,2
413758,-3.533000,-9.038879,-1.097108,12.590199,7.347933,-66.874328,2
413768,-3.324824,-9.019741,-1.062413,13.158989,7.286678,-66.200533,2
413778,-3.156132,-8.907276,-1.020538,13.167740,7.076662,-65.666747,2
413788,-3.024526,-8.857029,-0.975075,13.202744,6.866646,-64.319153,2
413797,-2.866599,-8.821136,-0.946361,13.158989,6.604128,-62.717805,2
413807,-2.787636,-8.877365,-0.914058,13.018979,6.254103,-60.040131,2
413817,-2.699102,-8.746956,-0.855434,12.485188,5.694059,-59.033771,2
413827,-2.563908,-8.792419,-0.830309,11.032581,5.090267,-58.071213,2
413837,-2.476570,-8.886936,-0.878165,9.930000,4.582727,-55.253525,2
413847,-2.401196,-8.931206,-0.862612,9.404961,4.101444,-52.155795,2
413857,-2.353339,-9.114254,-0.898504,9.501221,3.847677,-48.961806,2
413867,-2.317448,-9.077168,-0.918843,9.728737,3.628911,-46.135345,2
413878,-2.348555,-9.019741,-0.876969,10.315030,3.453898,-42.915115,2
413888,-2.327019,-9.047256,-0.829112,9.667480,3.130124,-36.999664,2
413899,-2.304287,-9.269791,-0.875773,9.019936,2.780098,-33.534424,2
413909,-2.200199,-9.164505,-0.786041,8.722416,2.631337,-34.339478,2
413919,-2.132004,-9.279358,-0.808774,7.751091,2.307565,-33.289399,2
413928,-2.055433,-9.358322,-0.802791,7.444820,2.018793,-31.670539,2
413938,-1.969292,-9.419342,-0.754935,7.969856,1.843781,-30.314186,2
413948,-1.952542,-9.406181,-0.732203,8.591152,1.721272,-29.071603,2
413958,-1.800598,-9.316448,-0.683151,7.147299,1.397498,-27.916520,2
413967,-1.761116,-9.513859,-0.759721,6.447247,1.126228,-26.472664,2
413977,-1.724028,-9.251842,-0.680758,6.876028,1.152480,-25.641351,2
413987,-1.671386,-9.401394,-0.714257,5.475925,0.916213,-23.759964,2
413997,-1.621136,-9.507874,-0.748953,5.187155,0.863709,-22.114847,2
414006,-1.587636,-9.383446,-0.679561,5.747194,0.942465,-20.793502,2
414016,-1.527816,-9.488731,-0.690329,4.854630,0.811205,-18.938362,2
414027,-1.487138,-9.549747,-0.709471,5.178404,0.898711,-17.021965,2
414037,-1.436889,-9.424126,-0.667597,6.079720,1.082475,-15.376854,2
414047,-1.374676,-9.298504,-0.652044,5.099649,1.187482,-13.504219,2
414058,-1.324426,-9.433697,-0.695115,3.839556,1.231236,-11.631581,2
414068,-1.280159,-9.434895,-0.677168,3.550785,1.406249,-10.555252,2
414078,-1.290927,-9.413357,-0.667597,3.708296,1.686269,-9.723938,2
414088,-1.239481,-9.501892,-0.625723,2.981994,1.668768,-8.971386,2
414098,-1.255034,-9.568893,-0.624527,2.763227,1.686269,-8.446346,2
414108,-1.256231,-9.438484,-0.531206,2.675720,1.668768,-8.087570,2
414118,-1.276570,-9.532997,-0.540777,1.380626,1.476254,-7.177505,2
414128,-1.268195,-9.543770,-0.537188,0.715577,1.266238,-6.363695,2
414139,-1.264606,-9.594013,-0.569491,0.759331,1.126228,-5.409874,2
414150,-1.275373,-9.631107,-0.564706,1.660646,1.082475,-4.596066,2
414160,-1.320837,-9.528214,-0.568295,2.474457,0.986218,-3.878512,2
414170,-1.335194,-9.501892,-0.550349,1.905664,0.688696,-2.907193,2
414180,-1.341176,-9.549747,-0.550349,0.558066,0.347421,-2.032128,2
414190,-1.368693,-9.605980,-0.557527,-0.194489,0.076151,-1.279574,2
414200,-1.398604,-9.620338,-0.545563,-0.369501,-0.230121,-0.605775,2
414210,-1.428514,-9.614357,-0.559920,-0.378252,-0.466388,0.190533,2
414219,-1.457228,-9.589230,-0.562313,-0.448257,-0.658903,1.083098,2
414229,-1.464406,-9.567696,-0.576670,-0.535764,-0.772661,1.914409,2
415867,-1.024127,-9.198006,-0.918843,-13.031677,4.486473,103.483093,2
415877,-1.124626,-8.539978,-0.771685,-10.336479,6.026585,98.976507,2
415887,-1.337587,-8.574673,-0.620937,-12.681652,6.324106,98.635225,2
415897,-1.817348,-9.142967,-0.751346,-14.125512,6.367859,103.246796,2
415907,-2.335393,-8.885742,-0.602991,-12.060360,6.385361,102.984309,2
415917,-2.874974,-9.052044,-0.534796,-12.226620,5.449043,105.635738,2
415926,-3.376271,-9.434895,-0.614955,-12.760407,3.978936,107.980895,2
415936,-3.687338,-9.672977,-0.586241,-12.760407,2.272562,105.355740,2
415946,-3.903889,-9.739979,-0.653240,-12.121609,0.592439,99.221525,2
415956,-4.150349,-9.969688,-0.745364,-12.121609,0.592439,91.162176,2
415965,-4.447058,-9.948154,-0.886540,-12.506638,-1.017679,91.162176,2
415975,-4.797606,-9.767498,-1.056431,-12.112862,-2.225266,82.079039,2
415985,-5.099102,-9.549747,-1.127019,-10.651501,-3.056577,72.995820,2
415995,-5.243868,-9.517445,-1.178464,-9.356411,-3.730377,64.656496,2
416005,-5.243868,-9.517445,-1.245463,-9.513920,-4.316669,57.472215,2
416015,-5.351543,-9.633499,-1.275373,-9.522667,-4.719198,50.909228,2
416025,-5.493917,-9.497108,-1.304088,-8.245075,-4.745449,44.004974,2
416035,-5.600397,-9.743565,-1.380658,-7.019989,-4.789204,37.328248,2
416045,-5.600397,-9.743565,-1.424925,-6.162426,-4.552937,30.730264,2
416055,-5.654236,-10.015153,-1.398604,-4.876080,-4.141655,23.012199,2
416065,-5.722431,-10.116848,-1.403389,-3.589736,-3.669121,13.902787,2
416075,-5.765501,-10.157528,-1.389033,-2.303392,-3.039076,4.014563,2
416085,-5.765501,-10.157528,-1.383051,-0.920792,-2.531539,-6.617464,2
416094,-5.758324,-9.990028,-1.385443,0.663074,-2.102757,-17.266983,2
416104,-5.758324,-9.990028,-1.385443,2.509459,-1.743982,-26.892693,2
416114,-5.592022,-9.842873,-1.332801,4.924635,-1.227694,-35.722077,2
416124,-5.367096,-9.716049,-1.256231,6.202229,-0.851416,-43.825164,2
416133,-5.162512,-9.742371,-1.211964,6.044718,-0.746408,-51.578231,2
416143,-4.980658,-9.906281,-1.226321,6.333488,-0.615149,-59.462571,2
416153,-4.805981,-9.671783,-1.174875,7.304811,-0.317627,-67.478118,2
416163,-4.631306,-9.805779,-1.203589,7.926105,-0.116363,-74.426150,2
416172,-4.468594,-9.450447,-1.146162,9.649979,0.364923,-80.280304,2
416182,-4.328613,-9.473179,-1.159322,10.813817,0.504933,-77.488861,2
416192,-4.224525,-9.232700,-1.144965,13.745282,0.933714,-77.742648,2
416202,-3.918245,-8.817543,-0.990628,15.346650,1.064973,-82.100439,2
416212,-3.530607,-9.189629,-1.030109,12.817711,0.732449,-85.513182,2
416222,-3.233897,-9.466000,-1.049252,12.047657,1.204984,-89.109716,2
416232,-2.938385,-9.377468,-0.982253,12.152665,2.115050,-94.745150,2
416242,-2.766102,-9.428909,-1.021734,12.686452,3.121373,-97.116575,2
416252,-2.590228,-9.364307,-1.010967,14.489090,4.337711,-98.070345,2
416262,-2.476570,-9.162109,-0.957129,17.018013,5.545301,-98.236637,2
416272,-2.330607,-8.800797,-0.856630,18.234352,6.332857,-95.515203,2
416282,-2.176271,-8.943169,-0.806380,17.779321,6.822895,-89.057226,2
416292,-2.072183,-8.804386,-0.756131,17.096771,7.164169,-86.992064,2
416301,-1.862811,-8.809170,-0.659222,15.241638,7.006655,-86.790771,2
416311,-1.695314,-9.035294,-0.665204,14.261566,6.796642,-81.409121,2
416321,-1.572083,-8.963509,-0.604187,14.305321,6.542873,-75.222445,2
416331,-1.470388,-8.807976,-0.552742,13.727776,6.122843,-70.033298,2
416340,-1.399800,-8.756527,-0.518046,12.703956,5.589052,-65.412965,2
416350,-1.258624,-8.855831,-0.498903,10.743809,4.652735,-61.475220,2
416360,-1.099502,-8.925224,-0.484546,9.422466,3.970185,-56.233582,2
416370,-0.957129,-8.959919,-0.473778,8.774914,3.375142,-50.274401,2
416380,-0.904486,-9.007774,-0.466600,8.713661,2.771348,-42.346315,2
416390,-0.839880,-8.943169,-0.421136,7.707340,2.036294,-36.465881,2
416400,-0.637687,-9.188431,-0.417547,5.335917,1.222485,-33.884447,2
416410,-0.592223,-9.315254,-0.473778,5.292162,0.767452,-29.535394,2
416420,-0.564706,-9.031704,-0.391226,4.950886,0.364923,-25.221322,2
416430,-0.468993,-9.250645,-0.434297,1.993171,-0.343879,-22.631135,2
416440,-0.455832,-9.427715,-0.486939,1.975670,-0.483890,-19.577149,2
416450,-0.458225,-9.212360,-0.409172,3.016995,-0.492640,-16.960709,2
416460,-0.471386,-9.280556,-0.423529,2.623218,-0.746408,-13.784240,2
416469,-0.472582,-9.284145,-0.424726,1.669397,-1.035180,-10.887775,2
416479,-0.441475,-9.408573,-0.448654,0.558066,-1.385206,-8.122574,2
416489,-0.441475,-9.397804,-0.431904,-0.264494,-1.568968,-5.838655,2
416499,-0.421136,-9.584446,-0.474975,-1.305820,-1.831488,-3.712252,2
416508,-0.411565,-9.777065,-0.504885,-0.667023,-1.910244,-2.189640,2
416518,-0.457029,-9.571285,-0.468993,0.409306,-1.883992,-1.314577,2
416528,-0.448654,-9.603588,-0.468993,-0.693275,-2.120259,-0.124490,2
416538,-0.468993,-9.722034,-0.522831,-1.673347,-2.242767,0.873083,2
416547,-0.538385,-9.741173,-0.549152,-0.553265,-2.137760,1.538131,2
416557,-0.567099,-9.617947,-0.506082,0.155537,-2.059004,2.054420,2
416567,-0.593420,-9.719639,-0.525224,0.111784,-2.120259,2.745720,2
416577,-0.601794,-9.720837,-0.525224,-0.203239,-2.137760,2.903231,2
416587,-0.641276,-9.777065,-0.545563,-0.632021,-2.234016,3.095745,2
416597,-0.637687,-9.763908,-0.546760,-1.122056,-2.172762,3.104496,2
418288,-1.899900,-9.578461,-0.616152,-8.813869,-3.607868,87.180634,2
418297,-2.018345,-9.602390,-0.604187,-8.813869,-3.607868,87.180634,2
418307,-2.167896,-9.933796,-0.608973,-10.205220,-3.634119,79.173799,2
418317,-2.184646,-9.553337,-0.495314,-11.281548,-3.677872,79.173799,2
418327,-2.313858,-10.022331,-0.611366,-14.484284,-4.246664,66.170349,2
418337,-2.362911,-10.182651,-0.672383,-18.229553,-5.357996,62.145066,2
418347,-2.556728,-9.760315,-0.655633,-18.439569,-6.714344,56.220889,2
418357,-2.764905,-9.439678,-0.646062,-16.015648,-6.714344,56.220889,2
418367,-2.934794,-9.370285,-0.778863,-14.965572,-7.440647,56.518388,2
418377,-3.139381,-9.180058,-0.827916,-15.499356,-8.306957,56.212130,2
418386,-3.365503,-9.035294,-0.882951,-15.210590,-8.840752,55.372057,2
418396,-3.365503,-9.035294,-0.949950,-14.265518,-9.138268,56.185884,2
418406,-3.546161,-9.572483,-1.025324,-13.836739,-9.225777,57.034683,2
418416,-3.546161,-9.572483,-1.025324,-13.609219,-9.103268,56.465898,2
418425,-3.599999,-9.859619,-1.061216,-12.987922,-8.709488,54.532013,2
418435,-3.723230,-9.948154,-1.093519,-11.806587,-8.035690,51.801805,2
418445,-3.894317,-9.882351,-1.123430,-10.283974,-7.073122,47.312732,2
418455,-4.033100,-9.949352,-1.189232,-8.857620,-5.839281,42.333603,2
418464,-4.125223,-10.005581,-1.208375,-7.352512,-4.386675,36.330659,2
418474,-4.198204,-10.115651,-1.186839,-6.232430,-2.802809,28.472603,2
418484,-4.329809,-10.253239,-1.204785,-5.077345,-1.341453,19.275674,2
418494,-4.476969,-10.316651,-1.153340,-3.694744,-0.186368,8.766159,2
418504,-4.584646,-10.340576,-1.136590,-2.583413,0.732449,-2.294647,2
418514,-4.622931,-10.517644,-1.153340,-1.472082,1.231236,-13.311707,2
418524,-4.632502,-10.414753,-1.149751,0.890591,1.835030,-24.206245,2
418534,-4.560717,-10.181454,-1.128215,3.367023,2.360067,-34.085710,2
418544,-4.453039,-9.987637,-1.118644,5.475925,2.823852,-42.241321,2
418553,-4.303488,-9.856030,-1.117447,7.103544,3.121373,-49.110551,2
418563,-4.118044,-9.645462,-1.088734,7.934853,3.226381,-54.990997,2
418573,-3.896709,-9.418144,-1.010967,7.821095,3.270134,-58.876281,2
418583,-3.717247,-9.818939,-1.077966,7.366062,3.296386,-55.673537,2
418592,-3.603588,-9.728012,-1.087537,10.122513,3.777671,-56.688614,2
418602,-3.436091,-9.335590,-0.918843,12.800210,4.188950,-60.355134,2
418612,-3.309272,-9.424126,-0.958325,12.668957,4.267708,-61.947742,2
418622,-3.129809,-9.377468,-0.914058,12.205170,4.363964,-66.279297,2
418631,-2.926419,-9.268593,-0.878165,11.960152,4.687737,-71.092134,2
418641,-2.695514,-9.348755,-0.904486,11.592625,5.037762,-73.349824,2
418651,-2.496909,-9.300896,-0.854237,12.598946,5.597803,-72.754760,2
418661,-2.322233,-9.147755,-0.798006,13.281498,6.035336,-70.707126,2
418671,-2.190628,-9.125023,-0.787238,13.316501,6.306604,-67.390628,2
418681,-2.081755,-9.069988,-0.729810,14.235314,6.420364,-62.831559,2
418691,-2.029112,-8.997005,-0.641276,15.110382,6.332857,-58.158708,2
418701,-1.960917,-9.036488,-0.582652,14.515339,5.781567,-54.159684,2
418711,-1.841276,-9.046059,-0.537188,12.791462,5.055262,-52.829576,2
418721,-1.710867,-9.099899,-0.513260,10.621303,4.232704,-52.952089,2
418731,-1.579262,-9.150146,-0.524028,9.247448,3.523903,-51.271973,2
418741,-1.531406,-9.158524,-0.512064,8.906178,3.051368,-48.086748,2
418751,-1.418943,-9.154934,-0.494118,7.777344,2.430074,-44.393969,2
418760,-1.332801,-9.296108,-0.546760,6.989786,1.940038,-40.666184,2
418770,-1.217946,-9.330807,-0.521635,7.199799,1.633765,-37.542207,2
418780,-1.200000,-9.284145,-0.491725,7.707340,1.467503,-34.680741,2
418790,-1.160518,-9.171684,-0.477368,6.727266,1.073724,-31.810539,2
418799,-1.138983,-9.297306,-0.501296,5.572182,0.697447,-28.581567,2
418809,-1.093519,-9.272182,-0.467796,5.108398,0.504933,-25.501344,2
418819,-1.049252,-9.273380,-0.477368,4.364595,0.251164,-22.377357,2
418829,-0.990628,-9.346359,-0.500100,3.402024,0.032398,-19.218377,2
418839,-0.927218,-9.480358,-0.501296,3.122004,0.006146,-16.470673,2
418849,-0.918843,-9.394218,-0.483350,3.480778,0.093653,-14.186764,2
418859,-0.850648,-9.434895,-0.458225,2.246940,-0.002604,-11.946605,2
418869,-0.796809,-9.605980,-0.494118,1.013099,0.058650,-9.951458,2
418879,-0.783649,-9.604786,-0.483350,1.328123,0.303668,-8.612610,2
418889,-0.802791,-9.554535,-0.446261,1.756903,0.592439,-7.413771,2
418899,-0.824327,-9.572483,-0.419940,1.555638,0.837457,-6.136177,2
418909,-0.817148,-9.622730,-0.416351,0.943094,0.837457,-4.954840,2
418919,-0.808774,-9.631107,-0.403190,0.619321,0.846208,-3.887263,2
418928,-0.827916,-9.640675,-0.407976,0.663074,0.846208,-3.020950,2
418938,-0.837487,-9.616749,-0.407976,0.663074,0.767452,-2.198391,2
418948,-0.857826,-9.578461,-0.413958,0.873089,0.767452,-2.198391,2
418958,-0.872184,-9.628712,-0.424726,0.750581,0.522434,-1.410833,2
418967,-0.863809,-9.576069,-0.411565,0.094282,0.233663,-0.728284,2
418977,-0.819541,-9.802193,-0.463011,-1.069552,-0.177617,-0.395760,2
418987,-0.819541,-9.762711,-0.436690,-2.329644,-0.597648,-0.071986,2
418997,-0.894915,-9.666996,-0.391226,-1.235815,-0.527642,-0.360757,2
419006,-0.894915,-9.666996,-0.391226,-0.728278,-0.606399,-0.465765,2
419016,-0.942772,-9.666996,-0.379262,-1.725850,-1.052681,-0.133240,2
421738,0.040678,-9.588036,-0.179462,-15.516865,-7.423147,95.003729,2
421748,-0.233300,-9.574875,-0.244068,-16.610688,-7.781921,98.127689,2
421757,-0.351745,-10.052239,-0.306281,-18.702087,-8.079441,99.737825,2
421772,-0.381655,-10.859817,-0.445065,-19.997177,-7.571903,92.816038,2
421782,-0.340977,-11.180458,-0.506082,-19.218377,-6.749348,83.925390,2
421793,-0.333799,-11.417347,-0.466600,-18.448318,-5.743023,71.665740,2
421802,-0.520439,-11.588429,-0.497707,-17.013206,-4.614189,56.632156,2
421813,-0.726221,-11.636292,-0.397208,-14.956814,-3.730377,34.668045,2
421823,-0.782452,-11.330010,-0.226122,-16.461929,-3.695374,11.566365,2
421833,-1.015752,-11.787037,-0.424726,-18.002037,-4.036648,-0.982052,2
421842,-1.197607,-11.605179,-0.416351,-15.070572,-4.150408,-14.694305,2
421852,-1.356730,-11.103886,-0.421136,-11.299050,-4.281668,-26.271400,2
421862,-1.467996,-10.837086,-0.509671,-8.516346,-4.649193,-35.669572,2
421872,-1.452443,-10.724621,-0.649651,-5.812399,-4.684196,-43.536410,2
421881,-1.405783,-10.444664,-0.799202,-2.277141,-4.176659,-48.953052,2
421892,-1.290927,-10.283149,-0.873380,0.496812,-3.511610,-52.190781,2
421902,-1.091126,-10.226914,-0.977468,2.841983,-2.444032,-54.308443,2
421913,-0.899701,-10.089329,-0.972682,4.959637,-1.157689,-57.939959,2
421922,-0.782452,-9.790226,-0.920040,6.788521,0.216162,-59.480057,2
421933,-0.715453,-9.829708,-0.861416,8.232372,1.143729,-56.916137,2
421943,-0.643669,-9.460018,-0.769292,9.098686,1.913785,-55.586028,2
421954,-0.581455,-9.431305,-0.661615,8.407387,2.097549,-53.678408,2
421964,-0.522831,-9.473179,-0.653240,8.022362,2.150052,-50.956941,2
421975,-0.309870,-9.485142,-0.525224,7.173550,1.712521,-48.375506,2
421985,-0.162712,-9.527020,-0.569491,6.919783,1.362495,-45.514054,2
421995,-0.056231,-9.422932,-0.535992,7.401066,1.204984,-42.372561,2
422005,0.124427,-9.452839,-0.538385,7.191053,1.248737,-38.881059,2
422015,0.246461,-9.420536,-0.553938,7.112295,1.677518,-35.380814,2
422025,0.428315,-9.482750,-0.559920,7.156050,2.255060,-31.819298,2
422035,0.509671,-9.485142,-0.567099,7.891102,3.313887,-28.467806,2
422045,0.512064,-9.397804,-0.528813,8.669907,4.311460,-25.300071,2
422055,0.439083,-9.226719,-0.435493,8.617405,5.020260,-22.316110,2
422065,0.406780,-9.169292,-0.350548,6.464748,5.090267,-19.297134,2
422075,0.356530,-9.265003,-0.332602,4.145828,4.766491,-16.251907,2
422085,0.344566,-9.412163,-0.295513,2.806981,4.232704,-13.565472,2
422094,0.392423,-9.577267,-0.284746,2.500708,3.480149,-11.229054,2
422104,0.466600,-9.592819,-0.278764,2.483207,2.797600,-9.487675,2
422114,0.457029,-9.540176,-0.283549,2.623218,2.220058,-7.851305,2
422124,0.460618,-9.480358,-0.235693,1.984420,1.633765,-6.258686,2
422133,0.494118,-9.637085,-0.276371,0.706827,0.933714,-4.639818,2
422143,0.510867,-9.646660,-0.299103,0.829335,0.557436,-3.467234,2
422153,0.507278,-9.586838,-0.293121,1.240616,0.259915,-2.285897,2
422163,0.453440,-9.549747,-0.281156,1.441881,-0.063859,-0.877044,2
422172,0.441475,-9.576069,-0.282353,1.354374,-0.597648,0.444302,2
422182,0.454636,-9.601196,-0.257228,0.339300,-1.175190,1.476877,2
422192,0.484546,-9.724426,-0.287138,-0.868288,-1.822737,2.334439,2
422203,0.485743,-9.724426,-0.267996,-1.043301,-2.295272,2.649463,2
422213,0.478564,-9.728012,-0.267996,-1.568339,-2.820310,2.903231,2
422223,0.472582,-9.762711,-0.307477,-2.102128,-3.266593,3.323262,2
422233,0.483350,-9.812962,-0.342173,-2.005871,-3.459106,3.848300,2
422243,0.491725,-9.810566,-0.392423,-1.253316,-3.310346,4.242079,2
422253,0.479761,-9.814156,-0.455832,-0.754529,-3.021575,4.530849,2
422263,0.484546,-9.879959,-0.518046,-0.535764,-2.566542,4.802120,2
422273,0.443868,-9.832100,-0.534796,0.260545,-1.910244,4.644608,2
422283,0.416351,-9.738781,-0.504885,0.304298,-1.306449,4.294582,2
422293,0.433101,-9.873978,-0.520439,-0.780782,-0.860167,3.874552,2
422302,0.445065,-9.966099,-0.508475,-0.903291,-0.300126,3.034492,2
422312,0.404387,-9.949352,-0.477368,-0.229491,0.294917,1.993165,2
422322,0.368494,-9.894314,-0.476171,0.313048,0.837457,1.109350,2
422332,0.354137,-9.940975,-0.483350,0.496812,1.143729,0.418050,2
422341,0.332602,-9.961315,-0.482153,0.496812,1.388747,-0.518268,2
422351,0.306281,-9.933796,-0.489332,2.238189,1.555009,-1.472088,2
422361,0.258425,-9.867992,-0.473778,2.238189,1.555009,-1.472088,2
422371,0.251246,-9.836887,-0.430708,3.104502,1.695019,-2.942195,2
422380,0.234496,-9.821335,-0.392423,3.550785,1.712521,-2.942195,2
422390,0.238086,-9.821335,-0.378066,3.620790,1.502505,-3.449732,2
422400,0.273978,-9.800995,-0.361316,3.577036,1.204984,-3.721003,2
422410,0.393619,-9.925423,-0.334995,3.629539,0.811205,-3.931016,2
422420,0.393619,-10.005581,-0.350548,3.139505,0.364923,-4.062277,2
422430,0.568295,-9.980457,-0.344566,3.025745,0.198660,-4.596066,2
422440,0.635294,-10.021137,-0.332602,3.384522,0.286167,-5.331118,2
422450,0.616152,-9.915852,-0.330209,3.480778,0.531185,-6.109926,2
422460,0.616152,-9.792622,-0.297906,3.848305,0.924963,-6.941236,2
422469,0.587438,-9.684944,-0.265603,4.075825,1.414999,-7.291264,2
422479,0.587438,-9.684944,-0.265603,3.874557,1.826279,-6.748724,2
424170,0.364905,-9.229111,-0.131605,-22.289848,-2.391529,99.142790,2
424180,0.052642,-9.273380,-0.185444,-22.797394,-1.052681,102.748013,2
424190,-0.276371,-9.850048,-0.287138,-23.681207,0.023648,104.148161,2
424200,-0.595812,-10.420735,-0.302692,-24.363747,0.496182,100.910401,2
424210,-0.837487,-11.008171,-0.331406,-24.241242,0.601190,92.746038,2
424219,-1.040877,-12.027515,-0.412762,-22.333603,0.548686,78.990054,2
424229,-1.095912,-12.202195,-0.403190,-18.684587,0.294917,51.381760,2
424239,-1.307677,-12.364902,-0.451047,-17.074471,-0.545144,29.015139,2
424249,-1.636690,-12.405583,-0.708275,-14.125512,-1.621472,11.260090,2
424258,-1.837687,-11.937783,-0.748953,-8.420090,-2.461534,-4.876085,2
424268,-2.061416,-11.508274,-0.821934,-2.557161,-3.161585,-16.006889,2
424278,-2.122432,-10.840672,-0.756131,0.934344,-3.529112,-29.299118,2
424288,-1.942971,-10.694714,-0.812363,1.450631,-3.791630,-39.589861,2
424297,-1.691724,-10.729408,-0.893719,2.430703,-3.187837,-47.649217,2
424307,-1.442871,-10.744962,-0.884147,5.248407,-1.726480,-54.684711,2
424317,-1.250249,-10.431503,-0.838684,8.092365,0.032398,-61.142688,2
424327,-1.034895,-10.258026,-0.789631,9.369961,1.511256,-66.340575,2
424337,-0.890130,-10.109665,-0.753739,9.859997,2.570083,-70.803375,2
424347,-0.857826,-9.775871,-0.739382,10.910072,3.550155,-74.154849,2
424357,-0.741775,-9.571285,-0.703489,11.662629,4.206451,-75.449953,2
424367,-0.582652,-9.547356,-0.707079,10.980076,4.573978,-74.828644,2
424377,-0.409172,-9.464806,-0.702293,10.175018,4.713989,-72.833529,2
424387,-0.178265,-9.452839,-0.662812,9.658730,5.002760,-69.595766,2
424397,0.041874,-9.503090,-0.620937,8.766167,5.212776,-65.054202,2
424407,0.156730,-9.385841,-0.585045,7.584827,5.125269,-60.355134,2
424417,0.267996,-9.158524,-0.531206,6.184729,4.783993,-56.041079,2
424426,0.425922,-9.285343,-0.537188,4.793375,4.337711,-50.274401,2
424436,0.534796,-9.343967,-0.537188,4.513355,3.935183,-44.805255,2
424446,0.559920,-9.263805,-0.501296,5.808451,3.576407,-39.572358,2
424456,0.538385,-9.138184,-0.433101,6.946032,3.147625,-34.426987,2
424465,0.561116,-9.153736,-0.385244,6.394745,2.237559,-29.237862,2
424475,0.574277,-9.302094,-0.337388,5.397169,1.231236,-24.293754,2
424485,0.549152,-9.298504,-0.293121,5.064646,0.032398,-19.935944,2
424495,0.519242,-9.260220,-0.233300,4.233335,-1.551467,-15.831890,2
424505,0.484546,-9.430107,-0.279960,4.058323,-3.362849,-11.675335,2
424515,0.531206,-9.505482,-0.313460,5.379667,-5.104227,-7.938807,2
424525,0.626919,-9.468395,-0.351745,6.342239,-6.548082,-4.692322,2
424535,0.760917,-9.494713,-0.368494,6.333488,-7.484402,-1.655852,2
424545,0.897308,-9.549747,-0.401994,5.318415,-7.851929,3.008239,2
424555,0.894915,-9.713657,-0.501296,5.335917,-7.571903,8.118610,2
424565,0.917647,-9.493519,-0.399601,5.405920,-6.740597,6.053461,2
424575,0.854237,-9.576069,-0.403190,3.717045,-6.023045,5.309656,2
424585,0.754935,-9.635891,-0.396012,2.229437,-5.524258,5.642181,2
424594,0.686740,-9.656227,-0.385244,1.634395,-5.217985,6.263475,2
424604,0.623330,-9.708874,-0.378066,1.380626,-4.981718,6.884771,2
424614,0.602991,-9.761513,-0.372084,1.555638,-4.859209,7.226048,2
424624,0.598205,-9.814156,-0.372084,1.713150,-4.727949,7.453566,2
424633,0.661615,-9.854836,-0.376869,1.643146,-4.465431,7.541069,2
424643,0.727417,-9.829708,-0.388834,1.065603,-4.089151,7.313553,2
424653,0.732203,-9.787834,-0.415154,0.103033,-3.301596,6.989780,2
424663,0.708275,-9.736389,-0.412762,0.103033,-3.301596,6.622253,2
424672,0.673579,-9.706478,-0.406780,-0.999547,-1.070182,6.315981,2
424682,0.585045,-9.683746,-0.374477,-2.102128,-1.070182,6.315981,2
424692,0.502492,-9.677765,-0.363709,-2.618415,0.014897,6.070963,2
424702,0.442672,-9.733997,-0.362512,-2.662169,0.714948,5.887199,2
424712,0.424726,-9.797405,-0.355334,-2.758426,1.038722,5.913452,2
424722,0.440279,-9.870388,-0.350548,-2.810929,1.021220,5.913452,2
424732,0.463011,-9.950546,-0.364905,-2.513407,0.951215,5.808443,2
424742,0.484546,-9.955330,-0.346959,-2.128380,0.837457,5.502172,2
424752,0.486939,-9.921833,-0.342173,-1.769604,0.697447,4.933378,2
424762,0.471386,-9.913460,-0.376869,-1.682097,0.601190,4.460846,2
424772,0.451047,-9.877563,-0.390030,-1.542087,0.688696,4.093317,2
424782,0.433101,-9.835690,-0.385244,-1.200812,0.854958,3.848300,2
424792,0.424726,-9.809372,-0.396012,-0.570766,1.047472,3.708290,2
424801,0.424726,-9.840477,-0.404387,-0.141985,1.327493,3.559529,2
424811,0.436690,-9.873978,-0.394816,-0.211990,1.546259,3.332013,2
424821,0.436690,-9.873978,-0.394816,-0.273244,1.730022,2.955735,2
424831,0.440279,-9.882351,-0.399601,0.006776,1.905035,2.325688,2
424840,0.433101,-9.854836,-0.385244,0.601819,2.141302,1.704393,2
424850,0.429511,-9.852440,-0.375673,1.048101,2.333817,1.284363,2
424860,0.410369,-9.779461,-0.354137,1.240616,2.447575,0.899335,2
424870,0.399601,-9.784245,-0.350548,0.960596,2.386320,0.759325,2
424880,0.397208,-9.841675,-0.351745,0.811835,2.255060,0.768075,2
424890,0.362512,-9.806976,-0.352941,1.879413,2.307565,0.855582,2
424900,0.342173,-9.780659,-0.321834,2.850734,2.220058,1.126852,2
426488,-0.305085,-9.255432,-0.484546,-24.783783,-3.940392,94.907446,2
426498,-0.545563,-9.397804,-0.583848,-26.297646,-4.089151,100.726616,2
426507,-0.972682,-9.766300,-0.814755,-25.492585,-3.966642,101.146662,2
426517,-1.262213,-9.352341,-0.782452,-23.733711,-3.634119,95.021210,2
426527,-1.343569,-10.185040,-0.948754,-23.576195,-3.529112,94.566164,2
426537,-1.316051,-11.179260,-1.054038,-22.998650,-2.855312,88.081942,2
426547,-1.306480,-11.679356,-0.991824,-20.977256,-1.516465,73.494630,2
426557,-1.591226,-12.064602,-0.973878,-18.115791,0.067401,58.128510,2
426567,-1.958524,-12.272778,-0.975075,-14.143005,1.502505,40.504718,2
426577,-2.328215,-12.198601,-0.957129,-9.251400,2.123801,21.848366,2
426587,-2.712262,-11.594414,-0.942772,-4.176029,2.211308,3.043242,2
426597,-2.922831,-11.193615,-0.972682,-0.999547,1.458753,-12.979180,2
426607,-2.940777,-11.265401,-1.148554,1.030601,0.233663,-25.177574,2
426617,-2.767298,-11.126617,-1.219142,4.040819,-0.746408,-35.407059,2
426627,-2.553140,-10.851440,-1.283748,7.803593,-1.113936,-43.527637,2
426637,-2.336590,-10.746158,-1.319641,11.260098,-1.017679,-50.020633,2
426647,-2.133200,-10.577465,-1.302891,13.727776,-0.746408,-56.364837,2
426657,-1.963310,-10.387233,-1.237089,15.582913,-0.300126,-61.956482,2
426667,-1.843669,-10.068989,-1.109073,16.983009,0.198660,-66.734314,2
426676,-1.726420,-9.686138,-1.004985,17.560555,0.644943,-70.033298,2
426686,-1.551744,-9.469589,-0.959521,17.219285,0.986218,-71.214690,2
426696,-1.277766,-9.522232,-0.965504,17.376794,1.703770,-70.199585,2
426706,-1.021734,-9.339180,-0.911665,19.013161,2.867604,-67.749391,2
426715,-0.800399,-9.029308,-0.771685,18.776894,3.943933,-60.031357,2
426725,-0.612562,-9.215950,-0.763310,17.490548,4.696487,-51.324463,2
426735,-0.380459,-9.111862,-0.628116,16.457970,5.536549,-49.320588,2
426745,-0.215354,-9.121433,-0.575474,14.322824,6.149094,-46.432862,2
426755,-0.102891,-9.138184,-0.498903,14.322824,6.805391,-43.518891,2
426765,-0.070588,-9.005383,-0.429511,10.621303,7.444189,-41.094971,2
426775,-0.056231,-8.975471,-0.372084,8.923676,7.794214,-37.515962,2
426786,0.009571,-9.046059,-0.344566,7.523579,8.047981,-32.948120,2
426796,0.093320,-9.203987,-0.354137,6.307236,8.310505,-28.056526,2
426807,0.156730,-9.315254,-0.343370,5.414671,8.660530,-23.812470,2
426817,0.180658,-9.369091,-0.334995,4.653366,8.914299,-20.040939,2
426828,0.179462,-9.515053,-0.294317,3.323268,8.809292,-16.251907,2
426838,0.162712,-9.677765,-0.285942,1.546887,8.231747,-13.294204,2
426848,0.138784,-9.845264,-0.321834,1.503135,7.382935,-11.220299,2
426858,-0.005982,-9.719639,-0.269192,4.705868,6.446615,-10.397739,2
426868,-0.166301,-9.292519,-0.131605,6.526001,4.906504,-9.758945,2
426878,-0.196211,-9.308075,-0.142373,4.478354,2.561333,-7.903803,2
426888,-0.204586,-9.409771,-0.173480,2.544461,0.259915,-5.943663,2
426898,-0.117248,-9.538982,-0.189033,1.546887,-1.560218,-3.861012,2
426908,-0.021535,-9.602390,-0.222532,1.809408,-2.934068,-1.813364,2
426918,0.083749,-9.669388,-0.266800,2.098179,-3.712873,0.059274,2
426927,0.185444,-9.741173,-0.320638,1.625645,-4.141655,1.573134,2
426937,0.271585,-9.832100,-0.369691,1.153110,-4.054150,2.850728,2
426947,0.232104,-9.856030,-0.404387,1.818158,-3.485357,3.743293,2
426957,0.141176,-9.576069,-0.367298,2.824482,-2.811559,4.443342,2
426966,0.100498,-9.524624,-0.349352,2.115680,-2.426531,5.834696,2
426976,0.076570,-9.665802,-0.364905,0.881840,-2.295272,7.269800,2
426986,-0.001196,-9.554535,-0.349352,0.969346,-2.120259,8.022354,2
426996,-0.032303,-9.525822,-0.289531,0.041779,-2.286521,8.722408,2
427005,0.022732,-9.827316,-0.290728,-2.014621,-2.610294,9.133686,2
427015,0.061017,-10.000798,-0.318245,-2.137131,-2.592793,8.468636,2
427025,0.093320,-9.998402,-0.303888,-1.813357,-2.400279,7.173542,2
427035,0.081356,-10.051049,-0.342173,-1.402077,-2.032752,5.790943,2
427045,0.023928,-9.962513,-0.332602,-1.402077,-2.032752,4.408340,2
427055,-0.064606,-9.766300,-0.318245,0.671825,-1.043931,3.428269,2
427065,-0.105284,-9.760315,-0.312263,0.059280,-1.131437,3.209503,2
427075,-0.112463,-9.821335,-0.326620,-0.080730,-1.210193,3.086994,2
427085,-0.124427,-9.845264,-0.314656,-0.080730,-1.280198,2.859478,2
427095,-0.119641,-9.911064,-0.301496,1.030601,-1.411457,2.553205,2
427105,-0.056231,-10.039082,-0.290728,1.144359,-1.630223,1.800651,2
427116,-0.015553,-10.054635,-0.283549,0.628072,-1.796484,0.514307,2
427126,-0.020339,-9.988831,-0.318245,0.024277,-1.735231,-0.763286,2
427136,0.013161,-10.090526,-0.368494,0.374303,-1.385206,-1.717106,2
427146,-0.074177,-9.887138,-0.379262,2.701973,-0.597648,-2.723430,2
427157,-0.104088,-9.655033,-0.327816,3.717045,-0.142615,-3.090957,2
427167,-0.149551,-9.650249,-0.338584,2.631968,-0.090111,-2.670925,2
427177,-0.131605,-9.717247,-0.363709,1.284369,-0.195118,-2.180890,2
427187,-0.113659,-9.759121,-0.366102,1.013099,-0.116363,-1.690854,2
427198,-0.094516,-9.766300,-0.363709,1.599392,0.076151,-1.323328,2
427208,-0.066999,-9.771084,-0.373280,1.660646,0.224912,-0.947050,2
427218,-0.040678,-9.791424,-0.370887,1.450631,0.312419,-0.597024,2
427228,-0.033499,-9.781853,-0.350548,1.065603,0.373673,-0.544520,2
429744,-1.232303,-9.285343,-0.333799,-6.792471,0.207411,77.196169,2
429754,-1.148554,-9.705284,-0.210568,-9.907700,-0.457638,73.512149,2
429764,-1.110269,-10.671982,-0.428315,-11.614071,-0.632650,72.234559,2
429774,-1.100698,-10.565503,-0.325424,-9.146389,0.198660,63.510165,2
429784,-1.216750,-10.843067,-0.357727,-7.247505,1.152480,57.052188,2
429794,-1.306480,-11.242669,-0.417547,-5.969910,2.071297,47.855272,2
429804,-1.347158,-11.514252,-0.368494,-4.298538,3.112622,34.956803,2
429814,-1.439281,-11.711667,-0.410369,-2.548410,4.407717,19.100662,2
429824,-1.689332,-11.355133,-0.422333,0.776832,5.842819,2.255683,2
429834,-1.923829,-11.010567,-0.320638,3.270764,6.892899,-13.722985,2
429843,-2.121236,-10.732998,-0.317049,4.303339,7.312929,-27.435243,2
429854,-2.151146,-10.543965,-0.275174,4.268337,6.971653,-38.828552,2
429864,-2.161914,-10.473378,-0.296710,4.618362,6.542873,-47.955475,2
429878,-1.984845,-10.290329,-0.317049,6.394745,5.212776,-61.063933,2
429888,-1.879561,-10.118042,-0.285942,7.584827,4.573978,-65.334229,2
429898,-1.759920,-9.833298,-0.247657,8.634907,3.795173,-67.898164,2
429908,-1.600798,-9.631107,-0.216550,9.107441,2.911359,-68.256927,2
429918,-1.423728,-9.375072,-0.148355,8.862423,2.018793,-66.506805,2
429927,-1.276570,-9.400196,-0.162712,8.267376,1.108727,-58.184967,2
429937,-1.113858,-9.314056,-0.203390,8.267376,0.566187,-51.289477,2
429947,-0.912861,-9.014954,-0.108873,9.947502,0.181159,-47.771716,2
429957,-0.756131,-9.061615,-0.124427,9.947502,0.181159,-47.771716,2
429966,-0.582652,-9.011364,-0.106481,8.652405,-0.361381,-37.244689,2
429976,-0.415154,-8.959919,-0.093320,7.138548,-0.886419,-37.244689,2
429986,-0.272782,-9.071182,-0.132802,5.607185,-1.376455,-32.178085,2
429996,-0.148355,-9.162109,-0.165105,3.909561,-1.647725,-26.262650,2
430005,-0.148355,-9.162109,-0.197408,2.448204,-1.490213,-21.808572,2
430015,-0.029910,-9.337982,-0.224925,1.004349,-1.140187,-18.658341,2
430025,-0.029910,-9.337982,-0.224925,-0.238242,-0.527642,-16.313164,2
430035,0.009571,-9.492321,-0.246461,-1.200812,0.172408,-13.924248,2
430045,0.011964,-9.507874,-0.244068,-1.682097,1.012470,-11.587826,2
430055,-0.102891,-9.621532,-0.199801,-2.364647,1.493755,-9.505173,2
430065,-0.102891,-9.621532,-0.199801,-2.810929,1.747523,-8.035069,2
430075,-0.144766,-9.726818,-0.186640,-3.318466,1.668768,-7.125000,2
430085,-0.197408,-9.722034,-0.173480,-3.677243,1.423750,-6.634966,2
430094,-0.230907,-9.755531,-0.165105,-3.615989,1.064973,-6.127428,2
430104,-0.238086,-9.777065,-0.163908,-3.379721,0.574938,-5.593637,2
430114,-0.253639,-9.824924,-0.206979,-2.889685,0.014897,-4.911087,2
430124,-0.276371,-9.786636,-0.218943,-2.320894,-0.483890,-4.272291,2
430133,-0.294317,-9.754337,-0.245264,-2.075875,-1.052681,-3.554740,2
430143,-0.276371,-9.875172,-0.271585,-1.839609,-1.638974,-2.740931,2
430153,-0.295513,-9.818939,-0.285942,-0.798283,-2.024001,-2.329650,2
430163,-0.300299,-9.756729,-0.283549,-0.308247,-2.470284,-1.857115,2
430172,-0.289531,-9.765102,-0.305085,-0.395753,-2.872813,-1.253322,2
430182,-0.266800,-9.798603,-0.323031,-0.211990,-3.170335,-0.518268,2
430192,-0.241675,-9.787834,-0.325424,0.146786,-3.301596,0.155531,2
430202,-0.179462,-9.841675,-0.346959,0.470560,-3.187837,0.750574,2
430212,-0.125623,-9.918243,-0.362512,0.654323,-2.977821,0.864332,2
430222,-0.132802,-9.893116,-0.351745,1.021850,-2.627795,0.531808,2
430232,-0.143569,-9.859619,-0.318245,1.310621,-2.312773,0.024271,2
430242,-0.186640,-9.897903,-0.257228,1.310621,-2.181513,-0.579523,2
430252,-0.309870,-9.914654,-0.211765,1.686898,-2.496536,-1.288324,2
430262,-0.369691,-9.932602,-0.189033,2.614467,-3.284094,-1.865866,2
430272,-0.388834,-9.830906,-0.200997,3.489531,-4.255413,-2.268396,2
430282,-0.301496,-9.858425,-0.220140,3.358271,-5.393000,-2.233393,2
430292,-0.235693,-9.882351,-0.258425,3.997066,-6.110550,-2.294647,2
430301,-0.167497,-9.795013,-0.244068,4.732122,-6.548082,-2.513413,2
430311,-0.087338,-9.768692,-0.266800,4.390844,-6.863106,-2.653424,2
430321,-0.004786,-9.797405,-0.282353,3.717045,-6.845606,-2.837188,2
430331,0.049053,-9.791424,-0.279960,3.480778,-6.338068,-3.204714,2
430340,0.050249,-9.765102,-0.290728,3.340770,-5.559261,-3.493485,2
430350,0.038285,-9.724426,-0.264407,2.596965,-4.745449,-3.537240,2
430360,0.086142,-9.824924,-0.284746,1.643146,-3.870384,-3.160961,2
430370,0.098106,-9.905083,-0.302692,1.791906,-2.671549,-2.880940,2
430380,0.112463,-9.677765,-0.299103,1.599392,-1.332702,-2.749681,2
430390,0.120837,-9.692123,-0.307477,-0.071980,-0.090111,-2.312148,2
430400,0.053838,-9.712460,-0.287138,-0.850787,1.222485,-2.058380,2
430410,-0.062213,-9.714851,-0.226122,-1.192061,2.202557,-1.830864,2
430420,-0.143569,-9.780659,-0.211765,-1.480833,2.823852,-1.437086,2
430430,-0.227318,-9.725620,-0.187836,-1.288319,3.138875,-1.060808,2
430440,-0.236889,-9.772282,-0.128016,-1.865860,2.902607,-0.684530,2
430450,-0.232104,-9.930210,-0.143569,-2.259640,2.491328,-0.404510,2
430460,-0.229711,-9.917049,-0.136391,-1.647094,1.957539,-0.518268,2
430469,-0.198604,-9.863209,-0.126819,-1.034550,1.450002,-0.632027,2
430479,-0.220140,-9.864403,-0.126819,-0.597018,0.951215,-0.605775,2
432452,-0.544367,-8.796013,0.043071,-16.313164,-11.150917,104.708183,2
432462,-0.993021,-9.157326,-0.136391,-16.855698,-11.990979,112.399960,2
432472,-1.612761,-9.223129,-0.196211,-14.335522,-12.122242,116.959047,2
432482,-2.082951,-9.515053,-0.212961,-13.250443,-12.498516,113.248777,2
432492,-2.316251,-10.374078,-0.198604,-17.196976,-13.478588,104.270661,2
432502,-2.408375,-11.730804,-0.410369,-19.848419,-14.126138,93.384829,2
432511,-2.559122,-12.087334,-0.460618,-17.713264,-13.916123,76.714873,2
432521,-2.781654,-11.968892,-0.530010,-13.574219,-13.067311,59.799867,2
432531,-2.988633,-12.074177,-0.675972,-9.995201,-12.078488,45.413833,2
432541,-3.160916,-11.877965,-0.795613,-5.987413,-10.800892,29.417665,2
432550,-3.259022,-11.291722,-0.836291,-2.434652,-9.374538,12.703949,2
432560,-3.266201,-10.924424,-0.879362,-1.130807,-7.904430,-1.472088,2
432570,-3.158525,-10.799996,-0.964307,-0.404504,-6.276812,-13.005432,2
432580,-3.048454,-10.717446,-0.983449,0.829335,-4.255413,-22.762392,2
432589,-2.940777,-10.567894,-0.977468,2.876986,-1.918994,-31.163011,2
432599,-2.806779,-10.411164,-0.930808,2.876986,0.303668,-38.469772,2
432609,-2.575871,-10.335789,-0.892522,5.642189,2.290063,-44.936495,2
432619,-2.333001,-10.365704,-0.904486,5.642189,2.290063,-44.936495,2
432629,-2.167896,-10.213757,-0.843469,6.596006,4.328962,-50.571933,2
432639,-2.044665,-9.926617,-0.723828,8.407387,8.800537,-60.197616,2
432649,-1.944167,-9.802193,-0.667597,9.632481,10.384403,-63.426623,2
432659,-1.860419,-9.589230,-0.543170,9.632481,10.384403,-63.426623,2
432669,-1.800598,-9.487534,-0.405583,9.702484,11.390728,-65.552979,2
432679,-1.703689,-9.506676,-0.345763,9.089939,11.145710,-62.682786,2
432689,-1.580458,-9.409771,-0.251246,8.687412,10.156891,-63.356586,2
432699,-1.445264,-9.421734,-0.245264,8.687412,10.156891,-63.356586,2
432709,-1.272981,-9.403786,-0.267996,8.232372,8.835541,-58.657517,2
432718,-1.161715,-9.342770,-0.232104,7.847347,7.601700,-58.657517,2
432728,-1.064805,-9.262611,-0.242871,7.584827,6.586626,-56.216063,2
432738,-0.924825,-9.261414,-0.245264,7.479824,5.519047,-53.153353,2
432748,-0.839880,-9.194416,-0.242871,7.331062,4.565226,-49.661865,2
432757,-0.839880,-9.194416,-0.242871,6.823524,3.768920,-45.645308,2
432767,-0.783649,-9.163307,-0.221336,5.887205,2.990114,-41.410003,2
432777,-0.715453,-9.163307,-0.221336,5.134651,2.403822,-36.754653,2
432788,-0.736989,-9.153736,-0.221336,4.259586,1.703770,-32.011812,2
432797,-0.711864,-9.154934,-0.212961,3.305766,0.951215,-27.207718,2
432808,-0.592223,-9.329609,-0.228514,2.343197,0.154907,-22.946153,2
432818,-0.506082,-9.353539,-0.234496,1.634395,-0.457638,-18.754601,2
432829,-0.435493,-9.426517,-0.260818,1.065603,-1.008928,-14.720554,2
432839,-0.370887,-9.422932,-0.293121,0.286796,-1.376455,-10.957784,2
432849,-0.357727,-9.419342,-0.339781,-0.999547,-1.367704,-5.882410,2
432859,-0.343370,-9.475571,-0.325424,-0.999547,-1.367704,-5.882410,2
432869,-0.354137,-9.588036,-0.331406,-1.375825,-0.641400,-2.487162,2
432879,-0.380459,-9.687336,-0.342173,-2.215886,-0.641400,-2.487162,2
432889,-0.409172,-9.736389,-0.333799,-2.802178,-0.195118,-0.308253,2
432899,-0.440279,-9.806976,-0.309870,-2.802178,-0.195118,-0.308253,2
432909,-0.453440,-9.833298,-0.302692,-2.740924,-0.308877,0.750574,2
432919,-0.479761,-9.842873,-0.312263,-2.583413,-0.308877,0.750574,2
432928,-0.480957,-9.867992,-0.320638,-2.259640,-0.588897,0.733073,2
432938,-0.451047,-9.896709,-0.329013,-1.603341,-0.921422,0.540559,2
432948,-0.409172,-9.911064,-0.334995,-0.850787,-1.210193,0.155531,2
432958,-0.409172,-9.911064,-0.368494,-0.229491,-1.323951,-0.229497,2
432967,-0.350548,-9.900299,-0.368494,0.286796,-1.166440,-0.658278,2
432977,-0.350548,-9.900299,-0.368494,0.759331,-0.807663,-1.113312,2
432987,-0.348155,-9.863209,-0.385244,0.864339,-0.282625,-1.410833,2
432997,-0.351745,-9.835690,-0.385244,0.470560,0.294917,-1.515841,2
433006,-0.364905,-9.763908,-0.384048,0.234293,0.942465,-1.515841,2
433016,-0.386441,-9.763908,-0.368494,0.024277,1.546259,-1.437086,2
433026,-0.422333,-9.777065,-0.360120,0.024277,1.983791,-1.419584,2
433036,-0.464207,-9.750748,-0.336191,-0.010725,2.202557,-1.402083,2
433046,-0.496510,-9.761513,-0.311067,0.041779,2.185056,-1.349579,2
433056,-0.495314,-9.809372,-0.293121,0.164288,2.018793,-1.367081,2
433066,-0.495314,-9.851246,-0.281156,0.225542,1.651267,-1.585846,2
433076,-0.470189,-9.870388,-0.273978,0.514313,1.327493,-1.997127,2
433086,-0.443868,-9.894314,-0.276371,0.689326,1.091226,-2.478411,2
433095,-0.411565,-9.895512,-0.294317,0.925593,0.907462,-3.064704,2
433105,-0.390030,-9.883549,-0.300299,1.056853,0.828707,-3.668498,2
433115,-0.386441,-9.833298,-0.317049,1.301871,0.872460,-4.246038,2
433125,-0.378066,-9.786636,-0.300299,1.564389,0.907462,-4.692322,2
433134,-0.391226,-9.774673,-0.309870,1.625645,0.924963,-4.937340,2
433144,-0.400797,-9.739979,-0.287138,1.590641,0.977467,-5.016096,2
433154,-0.406780,-9.760315,-0.287138,1.021850,0.846208,-4.797331,2
433164,-0.419940,-9.735191,-0.278764,0.566817,0.671195,-4.491055,2
433173,-0.393619,-9.763908,-0.267996,0.059280,0.399925,-4.149782,2
433183,-0.358923,-9.823727,-0.281156,0.304298,0.154907,-3.878512,2
435755,-1.079162,-8.790028,-0.350548,-23.226166,-11.693459,102.214205,2
435765,-1.288534,-8.895313,-0.532403,-23.716202,-11.465943,109.958590,2
435775,-1.512263,-9.438484,-0.790827,-24.083734,-10.538377,114.990175,2
435785,-1.513459,-10.545162,-0.988235,-21.721063,-8.683239,110.089815,2
435798,-1.513459,-10.545162,-0.988235,-21.642303,-6.486828,90.532141,2
435808,-1.366301,-11.941372,-1.177268,-23.812463,-4.167908,75.988555,2
435818,-1.581655,-12.446259,-1.286141,-20.242202,-0.326378,55.170808,2
435828,-1.927417,-12.230904,-1.130608,-13.469212,3.917682,32.567887,2
435839,-2.423928,-12.205781,-1.149751,-8.253826,7.050409,16.851746,2
435849,-2.914456,-11.846856,-1.075573,-1.752102,9.001801,1.328116,2
435859,-3.203988,-10.835888,-0.838684,2.719475,9.518093,-15.884389,2
435869,-3.299701,-10.776070,-0.856630,2.876986,8.511768,-28.905342,2
435879,-3.220737,-10.731804,-0.856630,3.682043,7.164169,-39.659867,2
435889,-3.043669,-10.746158,-0.790827,6.009716,5.912827,-48.331757,2
435899,-2.904885,-10.433896,-0.790827,9.623726,5.046513,-55.796051,2
435909,-2.691923,-10.034294,-0.675972,11.575123,3.935183,-60.521393,2
435919,-2.554336,-10.421933,-0.722632,11.601372,2.298814,-58.027453,2
435929,-2.342571,-10.290329,-0.748953,13.395256,1.414999,-64.082885,2
435939,-2.103290,-10.082153,-0.610169,13.999046,0.504933,-69.665771,2
435949,-1.926221,-10.037884,-0.660419,13.360256,-0.151365,-72.220979,2
435959,-1.824526,-9.690926,-0.625723,14.392823,-0.028856,-76.053743,2
435968,-1.688136,-9.446857,-0.585045,15.574154,0.041149,-76.395049,2
435978,-1.470388,-9.329609,-0.543170,16.029190,-0.002604,-73.113556,2
435988,-1.277766,-9.180058,-0.497707,16.335464,-0.125113,-68.405671,2
435998,-1.073180,-8.976669,-0.396012,16.002937,-0.291376,-63.146591,2
436007,-0.860219,-8.959919,-0.384048,14.611591,-0.606399,-58.456254,2
436017,-0.601794,-9.068790,-0.384048,13.018979,-0.790162,-54.640975,2
436027,-0.343370,-9.110668,-0.372084,11.645126,-0.781411,-50.825686,2
436037,-0.157926,-9.095116,-0.379262,10.691308,-0.501390,-45.575290,2
436047,-0.126819,-9.043667,-0.381655,10.175018,-0.063859,-39.187317,2
436057,-0.094516,-8.987438,-0.332602,8.853668,0.233663,-34.943283,2
436067,-0.044267,-9.046059,-0.320638,6.911028,0.496182,-31.889305,2
436077,0.034696,-9.170486,-0.312263,5.493425,0.872460,-27.881525,2
436087,0.075374,-9.311661,-0.295513,5.047144,1.327493,-23.899972,2
436097,0.117248,-9.333199,-0.242871,4.347094,1.765025,-20.390968,2
436107,0.124427,-9.445660,-0.240479,3.288266,1.966290,-17.013222,2
436117,0.117248,-9.537785,-0.229711,2.885736,2.220058,-14.195522,2
436127,0.100498,-9.583248,-0.210568,2.754477,2.395071,-11.929101,2
436136,0.099302,-9.625122,-0.199801,2.421952,2.333817,-10.030212,2
436146,0.053838,-9.544964,-0.191426,2.010672,2.202557,-8.455097,2
436156,0.027517,-9.542572,-0.196211,1.153110,1.966290,-6.914984,2
436166,-0.002393,-9.584446,-0.203390,0.505562,1.668768,-5.453629,2
436175,-0.043071,-9.584446,-0.221336,0.129285,1.458753,-4.176035,2
436185,-0.066999,-9.603588,-0.221336,-0.168237,1.056223,-2.784683,2
436195,-0.075374,-9.664604,-0.224925,-0.352000,0.697447,-1.375831,2
436205,-0.082552,-9.732800,-0.224925,-0.448257,0.189910,-0.255749,2
436214,-0.078963,-9.791424,-0.233300,-0.702026,-0.282625,0.628065,2
436224,-0.039482,-9.806976,-0.229711,-0.859537,-0.676404,1.144353,2
436234,-0.041874,-9.805779,-0.257228,-0.885789,-0.886419,1.415622,2
436244,-0.033499,-9.815353,-0.263210,-0.728278,-1.000177,1.599385,2
436254,-0.031107,-9.827316,-0.269192,-0.439507,-1.008928,1.669391,2
436264,-0.046660,-9.784245,-0.278764,-0.054479,-0.982676,1.669391,2
436274,-0.068195,-9.769890,-0.276371,0.260545,-0.833915,1.748147,2
436284,-0.057428,-9.828514,-0.271585,0.514313,-0.772661,1.713144,2
436294,-0.050249,-9.840477,-0.271585,0.820585,-0.720157,1.450625,2
436303,-0.031107,-9.839279,-0.262014,1.170611,-0.588897,1.135602,2
436313,-0.007178,-9.844067,-0.246461,1.118107,-0.527642,0.846831,2
436323,0.011964,-9.817745,-0.242871,0.383054,-0.448887,0.540559,2
436333,0.028714,-9.853638,-0.256032,-0.474509,-0.317627,0.260538,2
436342,0.029910,-9.930210,-0.288335,-0.387003,-0.028856,-0.238248,2
436352,-0.011964,-9.812962,-0.271585,-0.387003,-0.028856,-0.929548,2
436362,-0.037089,-9.792622,-0.289531,0.400554,0.443678,-1.218320,2
436372,-0.056231,-9.845264,-0.320638,0.181789,0.443678,-1.218320,2
436381,-0.049053,-9.863209,-0.332602,-0.159486,0.539935,-1.375831,2
436391,-0.051446,-9.827316,-0.351745,-0.141985,0.749951,-1.454587,2
436401,-0.040678,-9.802193,-0.361316,-0.168237,1.134979,-1.393332,2
436411,-0.040678,-9.810566,-0.372084,-0.071980,1.581261,-1.297075,2
436421,0.015553,-9.806976,-0.369691,-0.133234,2.036294,-1.148314,2
436431,-0.003589,-9.818939,-0.370887,-0.290746,2.552582,-1.034556,2
436441,-0.040678,-9.826122,-0.351745,-0.352000,3.042617,-0.929548,2
436451,-0.040678,-9.820137,-0.326620,0.041779,3.401394,-0.973301,2
436461,-0.088534,-9.796211,-0.308674,0.628072,3.628911,-1.209569,2
436471,-0.107677,-9.785442,-0.284746,0.776832,3.515152,-1.480839,2
436481,-0.104088,-9.816547,-0.289531,0.496812,3.270134,-1.647101,2
436491,-0.096909,-9.871586,-0.289531,0.488061,2.981363,-1.743357,2
439286,-0.427119,-9.250645,-0.528813,-21.248529,-24.539399,99.002752,2
439296,-0.518046,-9.333199,-0.646062,-23.269920,-24.031854,103.036797,2
439306,-0.769292,-9.818939,-0.826720,-23.418686,-22.421739,100.586605,2
439316,-0.921236,-9.268593,-0.802791,-23.479936,-20.277832,89.683323,2
439326,-1.098305,-10.055832,-1.054038,-24.188745,-17.985168,90.269623,2
439336,-1.387836,-10.241276,-1.186839,-21.808555,-15.106213,87.495642,2
439345,-1.692921,-10.086937,-1.143768,-18.527069,-12.017231,83.426609,2
439355,-2.157128,-10.442269,-1.240678,-15.718125,-9.024513,82.691565,2
439365,-2.628514,-10.540379,-1.204785,-12.917919,-6.600586,77.502413,2
439375,-3.107078,-10.502090,-1.070787,-12.917919,-5.069221,66.852908,2
439384,-3.474376,-10.387233,-1.087537,-11.132790,-4.430426,55.503325,2
439394,-3.652642,-10.737785,-1.171286,-11.132790,-4.430426,55.503325,2
439404,-3.718444,-10.913658,-1.270588,-11.229042,-4.272917,35.534363,2
439414,-3.747158,-10.688733,-1.324426,-9.172646,-3.922890,35.534363,2
439423,-3.735194,-10.463806,-1.344765,-5.759895,-3.424104,26.031168,2
439433,-3.751944,-10.424328,-1.365105,-3.309715,-2.995323,17.123016,2
439443,-3.726819,-10.423130,-1.389033,-2.032123,-2.514038,8.529892,2
439453,-3.726819,-10.423130,-1.361515,-0.745779,-1.883992,-0.098238,2
439463,-3.700499,-10.333401,-1.335194,0.453058,-1.271447,-8.770123,2
439473,-3.348753,-10.524822,-1.287338,1.091855,-0.606399,-17.074479,2
439487,-3.348753,-10.524822,-1.287338,2.841983,0.977467,-32.528076,2
439497,-3.199202,-10.599003,-1.268195,5.362165,2.333817,-40.018649,2
439506,-3.048454,-10.504487,-1.275373,8.284882,3.943933,-47.220416,2
439516,-2.902493,-10.354935,-1.241874,10.621303,5.650307,-53.774657,2
439527,-2.788834,-10.151539,-1.204785,12.677701,7.435438,-59.462571,2
439537,-2.691923,-9.976868,-1.143768,14.576591,9.028057,-63.986650,2
439547,-2.638085,-9.839279,-1.032502,16.291710,10.130634,-67.758150,2
439557,-2.548354,-9.772282,-0.916451,17.700562,10.681927,-70.750856,2
439567,-2.422731,-9.700497,-0.808774,18.724388,10.664425,-73.052306,2
439577,-2.218145,-9.430107,-0.658026,18.680641,10.209392,-72.273498,2
439587,-2.072183,-9.902691,-0.678365,18.768135,9.491840,-64.266634,2
439597,-1.914257,-9.492321,-0.594616,20.667024,9.124313,-67.320619,2
439607,-1.694118,-9.357128,-0.471386,21.498344,8.424263,-66.926818,2
439618,-1.487138,-9.481556,-0.503689,21.200821,7.820465,-65.710511,2
439628,-1.308873,-9.379860,-0.421136,21.235826,7.382935,-66.935577,2
439639,-1.186839,-9.304485,-0.333799,21.638353,6.962904,-66.585574,2
439649,-1.123430,-9.198006,-0.220140,22.224641,6.297853,-63.444109,2
439660,-1.070787,-9.138184,-0.049053,22.180893,5.370287,-59.068804,2
439670,-0.975075,-9.136990,0.094516,21.113312,4.101444,-53.949661,2
439681,-0.825523,-9.224323,0.149551,19.450692,2.885106,-48.410506,2
439691,-0.643669,-9.286541,0.123230,18.059341,1.887534,-43.160129,2
439702,-0.520439,-9.287735,0.049053,18.286858,1.248737,-38.819809,2
439712,-0.453440,-9.224323,0.002393,19.354431,0.881210,-35.590820,2
439722,-0.460618,-8.992222,0.027517,19.065659,0.469930,-32.834365,2
439732,-0.465404,-8.841476,0.046660,15.460408,-0.352630,-30.060425,2
439742,-0.452243,-8.961117,0.002393,10.253776,-1.437710,-27.268975,2
439752,-0.416351,-9.135792,-0.023928,6.324738,-2.426531,-25.028808,2
439762,-0.349352,-9.154934,-0.034696,4.154579,-3.126581,-24.442513,2
439772,-0.257228,-9.351147,-0.046660,2.413201,-3.739126,-21.528549,2
439782,-0.203390,-9.486340,-0.102891,1.809408,-4.132906,-17.415749,2
439792,-0.161515,-9.454037,-0.094516,1.573139,-4.272917,-15.193089,2
439801,-0.093320,-9.489929,-0.145962,0.575567,-4.430426,-13.154194,2
439811,-0.047856,-9.582050,-0.229711,-0.824535,-4.587938,-11.439065,2
439821,-0.007178,-9.613159,-0.307477,-1.428329,-4.377922,-10.178975,2
439831,0.013161,-9.619141,-0.358923,-1.288319,-3.879137,-9.076393,2
439840,0.008375,-9.580856,-0.364905,-1.017049,-3.327847,-8.026314,2
439850,0.031107,-9.572483,-0.384048,-1.218313,-2.872813,-6.844980,2
439860,-0.009571,-9.613159,-0.380459,-1.830858,-2.452783,-5.541134,2
439870,0.004786,-9.707676,-0.392423,-2.609664,-1.988999,-4.543560,2
439880,-0.015553,-9.864403,-0.380459,-2.189633,-1.603971,-3.904767,2
439890,-0.013161,-9.883549,-0.379262,-1.795856,-1.236444,-3.974771,2
439900,-0.016750,-9.954136,-0.373280,-1.349573,-0.755159,-4.202284,2
439910,0.004786,-9.858425,-0.369691,-0.579517,-0.090111,-4.604816,2
439920,-0.017946,-9.912262,-0.354137,-0.457008,0.662444,-4.613567,2
439931,-0.063410,-9.990028,-0.355334,-0.246993,1.344994,-4.718575,2
439941,-0.086142,-9.903889,-0.332602,0.391804,1.703770,-5.059849,2
439952,-0.120837,-9.869190,-0.320638,1.205614,1.835030,-5.103603,2
439962,-0.209372,-9.833298,-0.295513,1.905664,1.975040,-4.998594,2
439973,-0.226122,-9.677765,-0.223729,1.608143,1.721272,-4.666069,2
439983,-0.221336,-9.720837,-0.278764,0.496812,1.213735,-3.545990,2
439994,-0.215354,-9.934994,-0.266800,0.164288,0.863709,-2.005877,2
440004,-0.119641,-9.796211,-0.224925,1.284369,0.749951,-2.329650,2
440015,-0.106481,-9.772282,-0.220140,2.159433,0.706197,-2.959696,2
440025,-0.053838,-9.900299,-0.265603,1.608143,0.697447,-3.318473,2
440035,0.000000,-9.925423,-0.297906,1.608143,0.697447,-3.318473,2
443265,-0.376869,-8.839081,-0.040678,-18.422066,-9.934578,103.710604,2
443275,-0.632901,-8.981453,-0.040678,-20.417206,-9.514545,110.501099,2
443285,-0.963110,-8.931206,-0.095713,-20.548477,-8.438221,116.197717,2
443295,-1.378265,-9.008972,-0.216550,-20.548477,-6.880606,120.888114,2
443305,-1.982452,-9.351147,-0.403190,-18.947105,-4.544186,120.004272,2
443315,-2.239680,-9.393021,-0.315852,-19.900925,-2.400279,109.057224,2
443325,-2.204985,-10.680360,-0.455832,-24.144981,-0.606399,100.464106,2
443335,-2.215752,-11.785843,-0.624527,-23.217416,1.686269,89.779577,2
443344,-2.446659,-11.648251,-0.502492,-17.013206,4.398966,73.967166,2
443354,-2.772083,-11.692520,-0.508475,-13.022927,6.245352,60.114899,2
443364,-3.169291,-11.821731,-0.624527,-9.478916,7.452940,47.548981,2
443374,-3.515055,-11.322826,-0.613759,-4.946087,8.170494,30.922768,2
443383,-3.742372,-10.755733,-0.537188,-2.670918,8.082989,14.891605,2
443393,-3.872782,-10.561913,-0.583848,-3.029696,7.181669,2.316937,2
443403,-3.894317,-10.637287,-0.634098,-2.872184,6.157845,-8.000065,2
443413,-3.828514,-10.418342,-0.611366,-1.979619,5.046513,-17.030716,2
443422,-3.741176,-10.449451,-0.618544,-1.997120,3.602658,-24.801292,2
443432,-3.603588,-10.505680,-0.659222,-1.043301,2.587584,-32.213058,2
443442,-3.421735,-10.514058,-0.653240,0.365552,1.773776,-39.677370,2
443452,-3.272183,-10.503289,-0.702293,1.651896,1.292490,-46.887894,2
443462,-3.121434,-10.376465,-0.708275,3.025745,1.021220,-53.669648,2
443472,-2.963509,-10.217342,-0.685543,4.224585,0.986218,-59.838839,2
443482,-2.781654,-10.089329,-0.674776,4.907133,1.169981,-65.097961,2
443492,-2.568694,-10.024723,-0.666401,5.895958,1.511256,-69.228272,2
443502,-2.389232,-9.799801,-0.619741,7.707340,2.053796,-72.360964,2
443511,-2.169092,-9.507874,-0.522831,8.739910,2.438824,-72.886019,2
443521,-1.981256,-9.779461,-0.546760,8.906178,2.631337,-66.113038,2
443531,-1.812562,-9.594013,-0.528813,10.498794,3.103871,-67.154360,2
443541,-1.709671,-9.335590,-0.385244,11.601372,3.383893,-67.810640,2
443550,-1.643868,-9.322430,-0.381655,11.338853,3.112622,-65.299225,2
443560,-1.534995,-9.326019,-0.331406,11.312603,2.605085,-62.647815,2
443570,-1.386640,-9.320038,-0.277567,11.198845,2.001292,-59.838839,2
443580,-1.287338,-9.263805,-0.236889,11.225094,1.362495,-55.804811,2
443589,-1.136590,-9.326019,-0.220140,11.347607,0.819956,-50.589418,2
443599,-1.007378,-9.387035,-0.217747,12.458935,0.504933,-43.361392,2
443609,-0.886540,-9.255432,-0.145962,12.205170,0.146157,-41.733766,2
443619,-0.765703,-9.189629,-0.125623,10.761311,-0.151365,-41.655002,2
443629,-0.668793,-9.285343,-0.104088,9.326206,-0.387632,-39.966125,2
443639,-0.589830,-9.293716,-0.088534,8.232372,-0.536393,-37.690980,2
443649,-0.534796,-9.333199,-0.049053,7.672337,-0.632650,-34.339478,2
443659,-0.472582,-9.349949,-0.021535,7.208553,-0.615149,-30.672975,2
443669,-0.427119,-9.395412,0.005982,6.368490,-0.588897,-27.146461,2
443679,-0.400797,-9.418144,0.029910,6.000963,-0.597648,-24.250000,2
443689,-0.375673,-9.381054,0.062213,5.747194,-0.588897,-21.546052,2
443699,-0.338584,-9.422932,0.075374,5.239658,-0.667653,-18.929611,2
443709,-0.302692,-9.454037,0.082552,4.933386,-0.728907,-16.584435,2
443718,-0.288335,-9.446857,0.100498,4.329592,-0.711406,-14.510540,2
443728,-0.264407,-9.443268,0.104088,3.323268,-0.650152,-12.489147,2
443738,-0.277567,-9.428909,0.089731,3.323268,-0.510141,-10.485249,2
443748,-0.272782,-9.448055,0.087338,2.106929,-0.483890,-8.603855,2
443757,-0.265603,-9.445660,0.095713,2.106929,-0.483890,-8.603855,2
443767,-0.218943,-9.464806,0.116052,1.494384,-0.527642,-6.827478,2
443777,-0.105284,-9.716049,0.093320,0.426807,-0.562645,-5.252363,2
443787,-0.095713,-9.729210,0.084945,-0.448257,-0.256373,-3.817258,2
443797,-0.141176,-9.495911,0.110070,0.453058,0.417426,-3.152210,2
443807,-0.175872,-9.517445,0.116052,1.153110,1.003719,-2.443409,2
443817,-0.233300,-9.638283,0.069392,-0.430756,1.056223,-2.443409,2
443827,-0.281156,-9.686138,0.069392,-2.110878,0.924963,-1.944622,2
443837,-0.329013,-9.761513,0.046660,-3.038446,0.706197,-1.480839,2
443847,-0.391226,-9.743565,0.045464,-3.344718,0.356172,-0.045734,2
443857,-0.400797,-9.820137,0.011964,-3.475978,-0.282625,-0.045734,2
443867,-0.417547,-9.845264,-0.031107,-4.123526,-1.026429,0.951839,2
443877,-0.393619,-9.812962,-0.049053,-4.202282,-1.682727,1.931910,2
443886,-0.370887,-9.830906,-0.076570,-3.878508,-2.190264,2.736969,2
443896,-0.370887,-9.830906,-0.076570,-3.423474,-2.592793,3.270758,2
443906,-0.363709,-9.793816,-0.108873,-3.143453,-2.872813,3.498276,2
443916,-0.364905,-9.793816,-0.108873,-3.239711,-3.170335,3.463272,2
443926,-0.367298,-9.796211,-0.116052,-3.405973,-3.389102,3.384517,2
443936,-0.342173,-9.920635,-0.145962,-3.335967,-3.537861,3.235756,2
443947,-0.351745,-9.887138,-0.155533,-2.802178,-3.467857,2.938233,2
443957,-0.348155,-9.871586,-0.174676,-2.697170,-3.415354,2.798223,2
443967,-0.367298,-9.869190,-0.192622,-2.504657,-3.266593,2.658214,2
443977,-0.372084,-9.832100,-0.206979,-2.084626,-3.152833,2.491951,2
443988,-0.349352,-9.838085,-0.232104,-1.892113,-2.942820,2.238182,2
443998,-0.354137,-9.803387,-0.229711,-1.865860,-2.820310,2.141925,2
446858,-0.707079,-8.577065,0.098106,-14.099258,-5.611763,99.221525,2
446868,-0.936790,-8.804386,0.000000,-16.610688,-6.303066,106.528282,2
446878,-1.204785,-8.756527,-0.049053,-17.494500,-6.600586,112.592494,2
446888,-1.502691,-8.610565,-0.157926,-18.168289,-6.723097,115.392697,2
446898,-1.920239,-8.610565,-0.157926,-19.962181,-6.819351,105.513239,2
446908,-3.159720,-10.104882,-0.558724,-25.728860,-8.026939,108.663452,2
446922,-3.159720,-10.104882,-0.558724,-23.593698,-7.816925,104.830682,2
446933,-3.366699,-10.548753,-0.654437,-21.659799,-7.396896,99.694033,2
446943,-3.533000,-11.009369,-0.769292,-19.550896,-6.661839,91.284666,2
446954,-3.803390,-11.067994,-0.818345,-16.531929,-5.568010,80.355139,2
446964,-4.141973,-11.052440,-0.843469,-13.469212,-4.605440,68.611789,2
446974,-4.429111,-10.906479,-0.870987,-10.984029,-3.896639,55.153308,2
446984,-4.639679,-10.814358,-0.876969,-9.435165,-3.529112,41.624818,2
446994,-4.770088,-10.759319,-0.929611,-7.886299,-3.406604,29.076393,2
447004,-4.869390,-10.631306,-0.926022,-5.873655,-3.257841,17.359276,2
447014,-4.905283,-10.582253,-0.967896,-4.018518,-3.082829,6.517244,2
447025,-4.852642,-10.772480,-0.978664,-2.207135,-2.820310,-4.027273,2
447035,-4.767696,-10.856231,-0.996610,0.803084,-2.251517,-15.184338,2
447045,-4.667198,-10.676765,-0.935593,3.883308,-1.621472,-26.560173,2
447055,-4.515253,-10.524822,-0.900897,5.939711,-1.113936,-37.262192,2
447065,-4.331007,-10.456631,-0.857826,7.164799,-0.562645,-47.325425,2
447075,-4.090528,-10.208973,-0.777667,8.214878,0.084902,-56.277328,2
447085,-3.887138,-10.307080,-0.768095,9.063686,0.793704,-56.907382,2
447094,-3.760319,-10.277165,-0.809970,12.581447,1.966290,-58.885026,2
447104,-3.590428,-9.802193,-0.574277,15.206638,2.920109,-67.434387,2
447114,-3.448055,-9.796211,-0.543170,14.497833,3.270134,-74.452395,2
447124,-3.309272,-9.671783,-0.497707,13.902791,3.436397,-82.546759,2
447133,-3.084346,-9.416946,-0.405583,13.237743,3.515152,-90.194798,2
447143,-2.774475,-9.460018,-0.390030,12.108910,3.375142,-94.071321,2
447153,-2.499301,-9.442070,-0.357727,12.555195,3.506401,-93.537540,2
447163,-2.279161,-9.302094,-0.295513,13.115234,3.628911,-93.240023,2
447172,-2.041077,-9.270985,-0.252443,12.887719,3.646412,-93.948822,2
447182,-1.869990,-9.247059,-0.263210,12.782711,3.681415,-91.979923,2
447192,-1.768294,-9.127415,-0.216550,12.712704,3.576407,-90.422306,2
447202,-1.664207,-8.980255,-0.173480,12.432686,3.357641,-88.645935,2
447212,-1.513459,-8.792419,-0.142373,11.557617,2.788849,-84.393129,2
447222,-1.289730,-8.853439,-0.118445,10.035012,2.167554,-79.702759,2
447232,-1.121037,-8.878563,-0.110070,8.923676,1.668768,-73.831115,2
447242,-0.929611,-8.907276,-0.107677,8.092365,1.213735,-67.828155,2
447252,-0.774077,-8.993416,-0.096909,7.646080,0.828707,-61.072679,2
447261,-0.611366,-9.075970,-0.093320,7.287308,0.461179,-54.597216,2
447271,-0.466600,-9.142967,-0.075374,6.718515,0.207411,-48.708038,2
447281,-0.368494,-9.227917,-0.094516,6.596006,0.076151,-43.300142,2
447291,-0.330209,-9.160915,-0.041874,6.596006,0.076151,-43.300142,2
447300,-0.276371,-9.092720,-0.003589,6.736019,0.041149,-33.639419,2
447310,-0.256032,-9.255432,-0.021535,5.467175,-0.072609,-33.639419,2
447320,-0.263210,-9.217148,0.004786,4.329592,-0.457638,-28.949097,2
447330,-0.210568,-9.270985,0.015553,4.285837,-0.816414,-24.915047,2
447339,-0.192622,-9.409771,0.016750,3.787052,-1.262696,-20.994759,2
447349,-0.192622,-9.603588,0.003589,2.701973,-1.875242,-17.669518,2
447359,-0.154337,-9.692123,0.040678,1.695649,-2.540289,-15.350605,2
447369,-0.154337,-9.692123,0.040678,1.896914,-3.056577,-14.064259,2
447379,-0.209372,-9.737587,0.052642,1.791906,-4.080400,-13.556721,2
447389,-0.247657,-9.773476,0.041874,1.879413,-5.270489,-13.232949,2
447399,-0.205783,-9.737587,-0.027517,2.588214,-6.443073,-13.127941,2
447409,-0.205783,-9.737587,-0.027517,2.850734,-7.528152,-12.769165,2
447419,-0.074177,-9.670586,-0.116052,3.253263,-8.053192,-12.086613,2
447429,0.027517,-9.546162,-0.149551,3.375772,-7.843174,-11.001530,2
447439,0.114855,-9.626320,-0.161515,2.518209,-7.186880,-9.461422,2
447449,0.114855,-9.626320,-0.161515,1.459382,-6.250561,-8.052570,2
447459,0.113659,-9.623924,-0.166301,0.759331,-5.270489,-6.879982,2
447468,0.069392,-9.672977,-0.166301,0.418056,-4.246664,-5.646143,2
447478,0.032303,-9.720837,-0.150748,0.339300,-3.310346,-4.587313,2
447488,0.034696,-9.698105,-0.132802,0.111784,-2.522788,-3.659748,2
447498,0.051446,-9.761513,-0.168694,-0.141985,-1.892743,-2.802185,2
447507,0.081356,-9.739979,-0.165105,0.015526,-1.236444,-2.487162,2
447517,0.059821,-9.803387,-0.148355,-0.106982,-0.711406,-2.180890,2
447527,0.010768,-9.756729,-0.147159,-0.071980,-0.291376,-2.049629,2
447537,-0.017946,-9.756729,-0.129212,0.173038,-0.011355,-1.769610,2
447547,-0.025125,-9.771084,-0.128016,0.286796,0.189910,-1.279574,2
447558,-0.016750,-9.845264,-0.141176,0.479310,0.399925,-0.763286,2
447568,-0.017946,-9.857227,-0.111266,1.126858,0.627442,-0.448263,2
447579,-0.004786,-9.804585,-0.094516,1.441881,0.714948,-0.255749,2
447589,-0.014357,-9.805779,-0.077767,0.943094,0.758701,-0.211996,2
447600,-0.005982,-9.871586,-0.093320,0.208041,0.697447,-0.439513,2
450153,0.187836,-9.110668,-0.799202,-15.105580,1.441251,88.746977,2
450163,0.057428,-9.133396,-0.821934,-14.633045,4.425219,98.731508,2
450172,-0.256032,-9.058025,-0.768095,-13.836739,7.811716,98.731508,2
450182,-0.790827,-9.042469,-0.628116,-13.110436,10.839436,102.791774,2
450192,-1.584048,-8.993416,-0.515653,-11.509068,13.245865,106.615841,2
450202,-2.170288,-8.347359,-0.163908,-7.755043,14.785976,103.666866,2
450212,-2.170288,-8.347359,-0.245264,-8.603851,14.575962,96.132536,2
450222,-3.025722,-9.653835,-0.204586,-12.112862,12.913342,101.304162,2
450232,-3.312860,-9.466000,-0.063410,-11.762837,11.206967,102.949309,2
450242,-3.591624,-9.724426,-0.100498,-9.767685,9.518093,101.391685,2
450252,-3.591624,-9.806976,-0.156730,-8.997635,7.470440,102.695525,2
450261,-4.043867,-9.530605,-0.175872,-7.632532,5.545301,102.144253,2
450271,-4.043867,-9.530605,-0.175872,-5.654888,4.013939,98.591461,2
450281,-4.346560,-9.371483,-0.299103,-5.339865,2.701343,94.076176,2
450291,-4.713858,-9.477962,-0.299103,-6.144924,1.528758,89.359560,2
450300,-5.017746,-9.670586,-0.346959,-7.553778,0.119905,83.242826,2
450310,-5.222332,-9.968491,-0.397208,-9.085136,-1.175190,75.209746,2
450320,-5.326420,-10.420735,-0.460618,-10.686505,-2.304023,65.058990,2
450330,-5.398205,-10.747356,-0.556331,-11.351556,-3.056577,52.589355,2
450339,-5.479559,-10.783246,-0.634098,-10.126466,-3.397852,38.194550,2
450349,-5.484346,-10.615753,-0.640080,-8.280079,-3.494110,23.633492,2
450359,-5.522631,-10.593017,-0.690329,-6.529953,-3.774128,12.073902,2
450369,-5.560917,-10.441074,-0.716650,-3.887259,-4.036648,1.800651,2
450379,-5.497507,-10.212559,-0.707079,-1.314570,-4.465431,-8.455097,2
450389,-5.387436,-10.113258,-0.733400,0.391804,-4.850458,-17.730774,2
450399,-5.249851,-10.139580,-0.763310,1.100605,-5.287989,-26.682680,2
450409,-5.119440,-10.176667,-0.780060,1.328123,-5.594263,-35.967088,2
450419,-4.950747,-10.237683,-0.798006,1.380626,-5.743023,-45.295272,2
450428,-4.794018,-10.241276,-0.815952,2.483207,-5.463003,-54.535952,2
450438,-4.529610,-10.017544,-0.775274,3.209510,-5.077974,-61.326447,2
450448,-4.328613,-10.344162,-0.845862,4.452099,-4.587938,-63.811631,2
450458,-4.174276,-10.070187,-0.784845,8.171124,-3.459106,-70.715880,2
450467,-4.015154,-9.714851,-0.702293,9.711235,-2.549040,-79.317751,2
450477,-3.835691,-9.707676,-0.720239,9.046185,-1.813985,-86.948309,2
450487,-3.573679,-9.643070,-0.727417,9.046185,-1.026429,-94.771395,2
450497,-3.311665,-9.518642,-0.662812,8.879925,-0.238872,-101.841915,2
450506,-3.092721,-9.543770,-0.623330,8.153618,0.434928,-107.048523,2
450516,-2.901295,-9.554535,-0.604187,8.171124,1.134979,-109.139919,2
450526,-2.762511,-9.369091,-0.552742,10.035012,2.062547,-109.069908,2
450536,-2.522033,-9.262611,-0.538385,11.356357,2.613836,-107.792330,2
450546,-2.260019,-9.142967,-0.521635,12.686452,3.138875,-103.775811,2
450556,-2.032701,-8.908474,-0.464207,13.815281,3.480149,-100.511813,2
450566,-1.740777,-8.738583,-0.410369,13.080231,3.445148,-98.149137,2
450576,-1.433300,-8.819939,-0.410369,11.636375,3.121373,-94.158850,2
450586,-1.234695,-8.721832,-0.391226,11.391362,2.937611,-89.249725,2
450596,-0.666401,-8.750549,-0.251246,11.172593,2.701343,-83.404331,2
450619,-0.666401,-8.750549,-0.251246,10.262527,2.298814,-67.906890,2
450629,-0.498903,-8.781654,-0.181854,9.431210,2.001292,-62.647815,2
450639,-0.281156,-8.804386,-0.150748,6.954782,1.537508,-58.246217,2
450649,-0.090927,-9.205181,-0.169890,5.624687,1.239986,-52.672057,2
450659,-0.002393,-9.085541,-0.162712,7.532322,1.607513,-47.535448,2
450670,0.005982,-8.854637,-0.072981,8.127369,1.747523,-42.048798,2
450680,0.089731,-9.004185,-0.063410,5.773449,1.493755,-36.098359,2
450690,0.160319,-9.196808,-0.075374,4.084572,1.292490,-30.786729,2
450700,0.184247,-9.253040,-0.045464,3.909561,1.292490,-26.227639,2
450710,0.209372,-9.315254,-0.013161,3.087000,1.073724,-22.114847,2
450719,0.211765,-9.456429,-0.016750,2.833232,0.854958,-18.492073,2
450729,0.244068,-9.365501,0.005982,2.684472,0.671195,-15.490612,2
450739,0.241675,-9.351147,-0.031107,2.168183,0.478681,-12.305382,2
450749,0.265603,-9.370285,-0.037089,1.686898,0.391174,-9.295158,2
450758,0.295513,-9.347557,-0.068195,1.380626,0.627442,-6.346193,2
450768,0.296710,-9.354733,-0.072981,1.293120,1.196233,-3.475984,2
450778,0.247657,-9.403786,-0.056231,0.934344,1.660017,-0.649528,2
450788,0.163908,-9.416946,-0.063410,0.286796,1.983791,1.940661,2
450797,0.132802,-9.538982,-0.074177,-0.745779,1.940038,4.172073,2
450807,0.090927,-9.613159,-0.081356,-1.743351,1.835030,5.799690,2
450817,0.021535,-9.631107,-0.069392,-2.732173,1.511256,6.867271,2
450827,-0.047856,-9.645462,-0.065803,-3.467227,1.117477,7.654829,2
450837,-0.120837,-9.684944,-0.070588,-3.808501,0.679945,8.258621,2
450847,-0.159123,-9.712460,-0.078963,-3.764750,0.251164,8.766159,2
450857,-0.229711,-9.735191,-0.100498,-3.484729,-0.168866,9.229942,2
450867,-0.270389,-9.781853,-0.114855,-3.178456,-0.641400,9.632473,2
450877,-0.272782,-9.850048,-0.147159,-2.845932,-1.096435,9.982498,2
450886,-0.267996,-9.872780,-0.175872,-2.259640,-1.463961,10.131257,2
450896,-0.262014,-9.873978,-0.203390,-1.830858,-1.560218,10.026253,2
453383,-1.048056,-9.217148,-0.210568,-17.870766,-5.681770,98.048954,2
453393,-1.326819,-9.168095,-0.290728,-19.839668,-5.655516,103.229308,2
453403,-1.721634,-9.358322,-0.361316,-20.478470,-5.252987,105.740750,2
453413,-1.954935,-9.172878,-0.354137,-21.563554,-4.456678,93.944883,2
453422,-2.137985,-9.999599,-0.457029,-25.098801,-4.141655,89.884586,2
453432,-2.177467,-11.075172,-0.745364,-25.615089,-3.494110,86.235571,2
453442,-2.189431,-11.270188,-0.717846,-21.476045,-1.918994,75.664797,2
453452,-2.362911,-11.716450,-0.753739,-17.205734,-0.483890,66.380372,2
453462,-2.574676,-12.022728,-0.784845,-13.329201,0.837457,51.548038,2
453472,-2.780458,-12.080154,-0.836291,-10.257725,1.782526,31.062782,2
453482,-3.052044,-11.883945,-0.824327,-6.731216,2.447575,11.618866,2
453492,-3.326021,-11.464005,-0.827916,-2.469655,2.928860,-5.742399,2
453502,-3.480359,-11.103886,-0.826720,0.680575,2.946361,-21.353531,2
453511,-3.450448,-10.985440,-0.832702,2.780728,2.736345,-34.671998,2
453521,-3.379860,-10.880158,-0.806380,4.697119,2.360067,-46.091585,2
453531,-3.311665,-10.620537,-0.787238,7.068544,2.115050,-55.874820,2
453541,-3.248254,-10.395612,-0.789631,9.212448,1.677518,-63.916612,2
453550,-3.104685,-10.119240,-0.760917,11.575123,1.274989,-69.910798,2
453560,-2.836690,-9.940975,-0.701097,13.290246,0.793704,-73.988619,2
453570,-2.528015,-9.918243,-0.642473,13.876542,0.391174,-76.640048,2
453580,-2.301894,-9.802193,-0.582652,14.410333,0.067401,-78.705201,2
453589,-2.088933,-9.430107,-0.488136,14.270321,-0.431386,-76.675048,2
453599,-1.980059,-9.617947,-0.537188,14.629097,-1.140187,-71.214690,2
453609,-1.866401,-9.201595,-0.396012,15.932941,-1.551467,-74.294891,2
453619,-1.645064,-9.248253,-0.379262,16.256707,-2.444032,-70.952120,2
453630,-1.411765,-9.188431,-0.399601,15.714169,-3.266593,-66.883087,2
453640,-1.124626,-9.379860,-0.346959,15.696674,-3.844135,-61.133943,2
453651,-0.972682,-9.346359,-0.346959,15.714169,-4.115406,-58.333740,2
453661,-0.875773,-9.214756,-0.306281,14.961620,-4.246664,-56.741118,2
453672,-0.753739,-9.294910,-0.269192,14.305321,-4.194160,-54.107180,2
453682,-0.658026,-9.272182,-0.272782,13.509010,-4.097904,-51.928267,2
453693,-0.634098,-9.135792,-0.232104,13.237743,-3.975393,-48.077989,2
453703,-0.559920,-9.085541,-0.184247,12.563943,-3.905388,-43.002610,2
453714,-0.470189,-9.110668,-0.181854,11.303853,-3.914139,-38.207262,2
453724,-0.228514,-9.317646,-0.132802,10.131264,-3.844135,-33.543167,2
453734,-0.228514,-9.317646,-0.132802,8.827419,-3.642870,-28.914087,2
453744,-0.179462,-9.402592,-0.136391,7.672337,-3.327847,-25.763862,2
453754,-0.155533,-9.365501,-0.123230,6.490999,-2.916567,-23.409944,2
453764,-0.117248,-9.476768,-0.095713,5.300913,-2.540289,-21.318543,2
453774,-0.117248,-9.476768,-0.095713,4.259586,-2.190264,-18.999611,2
453784,-0.078963,-9.517445,-0.088534,4.110826,-1.813985,-16.934464,2
453794,-0.044267,-9.558125,-0.093320,3.822056,-1.560218,-15.009331,2
453803,-0.074177,-9.521034,-0.078963,3.568287,-1.070182,-13.346707,2
453813,-0.068195,-9.507874,-0.069392,2.876986,-0.571396,-11.509072,2
453823,-0.075374,-9.562908,-0.098106,2.176934,-0.133864,-9.461422,2
453833,-0.068195,-9.580856,-0.096909,2.124431,0.312419,-7.475025,2
453842,-0.081356,-9.544964,-0.090927,2.220687,0.784953,-5.698645,2
453852,-0.096909,-9.562908,-0.077767,1.223114,1.064973,-4.132280,2
453862,-0.082552,-9.728012,-0.116052,0.418056,1.362495,-2.863440,2
453872,-0.096909,-9.800995,-0.105284,1.266868,1.835030,-2.277146,2
453881,-0.131605,-9.724426,-0.110070,2.211936,2.281313,-2.110884,2
453891,-0.135194,-9.759121,-0.124427,2.115680,2.701343,-1.813364,2
453901,-0.185444,-9.757923,-0.135194,2.343197,3.243882,-1.638350,2
453911,-0.189033,-9.674175,-0.095713,2.640718,3.655163,-1.384582,2
453921,-0.129212,-9.712460,-0.066999,2.185685,3.882679,-0.675780,2
453931,-0.078963,-9.968491,-0.045464,1.844410,4.127695,-0.063235,2
453941,-0.020339,-10.174274,-0.001196,2.063176,4.232704,-0.220747,2
453951,-0.072981,-10.052239,0.002393,3.104502,4.285208,-1.052057,2
453961,-0.120837,-9.854836,0.075374,3.629539,3.987687,-1.883368,2
453971,-0.178265,-9.798603,0.078963,3.472029,3.418895,-2.277146,2
453981,-0.171087,-9.763908,0.095713,2.859484,2.683841,-2.469661,2
453991,-0.162712,-9.823727,0.082552,2.579464,2.018793,-2.338401,2
454001,-0.163908,-9.779461,0.098106,2.859484,1.432500,-2.259645,2
454010,-0.159123,-9.830906,0.088534,2.448204,0.802454,-1.874617,2
454021,-0.151944,-9.839279,0.072981,2.229437,0.329920,-1.778360,2
454031,-0.120837,-9.860817,0.050249,2.491958,0.014897,-1.944622,2
454041,-0.112463,-9.800995,0.059821,3.060749,-0.212620,-2.329650,2
454050,-0.101695,-9.756729,0.045464,2.456955,-0.475139,-2.732180,2
454060,-0.082552,-9.796211,0.032303,1.818158,-0.518892,-2.907193,2
454070,-0.074177,-9.747158,0.022732,1.643146,-0.300126,-2.994699,2
454080,-0.040678,-9.810566,0.017946,1.258117,-0.063859,-2.723430,2
454089,-0.032303,-9.809372,0.014357,1.573139,0.373673,-2.417156,2
454099,-0.044267,-9.754337,0.039482,1.765654,0.767452,-2.110884,2
454109,-0.050249,-9.720837,0.047856,1.284369,0.924963,-1.717106,2
454119,-0.021535,-9.840477,0.033499,0.540565,1.012470,-1.314577,2
456366,-0.289531,-8.998203,0.131605,-18.509575,7.312929,94.811192,2
456376,-0.587438,-9.092720,0.119641,-19.795914,6.735386,99.729033,2
456385,-0.918843,-9.042469,0.001196,-19.498390,5.974081,104.454410,2
456395,-1.306480,-8.994614,-0.089731,-19.139618,5.081516,108.374667,2
456405,-1.630708,-8.914455,-0.193819,-20.390961,3.847677,104.209411,2
456415,-2.091326,-8.746956,-0.221336,-24.293740,2.141302,101.960504,2
456424,-2.501695,-9.371483,-0.522831,-26.577668,0.548686,105.119443,2
456434,-2.835493,-9.680157,-0.600598,-26.778924,-0.807663,102.984309,2
456444,-3.101096,-10.143166,-0.650847,-26.883943,-2.041502,99.221525,2
456454,-3.364305,-10.716248,-0.758524,-26.210144,-3.117831,92.719793,2
456464,-3.572482,-11.170887,-0.912861,-23.777459,-3.774128,83.006592,2
456474,-3.841675,-11.254635,-0.988235,-19.375886,-3.984144,72.182007,2
456484,-4.157526,-11.178063,-1.048056,-15.473107,-4.369173,59.782381,2
456494,-4.455433,-11.071583,-1.089930,-12.532895,-4.911713,45.300064,2
456504,-4.816750,-11.097901,-1.101894,-11.124035,-5.848032,29.846444,2
456517,-4.784447,-11.194813,-1.164107,-10.826515,-7.099373,15.416650,2
456527,-4.709072,-11.229511,-1.202393,-9.470169,-8.201950,1.765648,2
456537,-4.634895,-10.868191,-1.166501,-6.101170,-8.910755,-11.176548,2
456547,-4.634895,-10.868191,-1.152143,-1.542087,-9.287029,-23.698709,2
456557,-4.237686,-10.529610,-1.131804,1.039351,-9.768318,-34.864519,2
456567,-3.944566,-10.561913,-1.140179,1.686898,-10.398362,-44.936495,2
456578,-3.749551,-10.693516,-1.213161,2.281942,-10.722138,-48.795533,2
456588,-3.523429,-10.083348,-1.068395,5.799700,-10.372113,-51.368241,2
456599,-3.251844,-10.018742,-1.044466,10.350033,-9.173271,-68.081942,2
456609,-2.890529,-10.080956,-1.039681,10.656308,-8.438221,-74.102359,2
456619,-2.579460,-9.871586,-0.948754,12.021401,-7.248135,-80.350313,2
456629,-2.316251,-9.663410,-0.862612,12.817711,-5.961788,-84.086857,2
456639,-2.087736,-9.474373,-0.805184,13.088982,-4.701696,-86.510773,2
456649,-1.841276,-9.460018,-0.750149,13.088982,-3.555363,-88.523436,2
456659,-1.664207,-9.275772,-0.679561,13.859039,-2.286521,-88.707218,2
456669,-1.423728,-9.309269,-0.613759,14.322824,-1.490213,-87.473326,2
456679,-1.227517,-9.158524,-0.526421,14.629097,-0.807663,-82.240477,2
456689,-1.100698,-9.402592,-0.506082,15.714169,-0.308877,-75.134950,2
456699,-1.018145,-9.225521,-0.362512,16.554231,-0.125113,-73.612337,2
456709,-0.934397,-9.078365,-0.259621,15.267891,-0.720157,-74.128604,2
456718,-0.832702,-9.224323,-0.293121,13.552765,-1.778984,-73.437285,2
456728,-0.646062,-9.194416,-0.308674,13.290246,-2.759056,-71.232181,2
456738,-0.440279,-9.166897,-0.299103,13.290246,-2.759056,-71.232181,2
456748,-0.214157,-9.056828,-0.317049,13.351501,-3.537861,-63.435364,2
456757,0.011964,-9.099899,-0.299103,13.053982,-3.791630,-63.435364,2
456767,0.167497,-9.306877,-0.234496,12.100159,-3.432856,-57.686191,2
456777,0.199801,-9.309269,-0.141176,11.076336,-2.829061,-52.190781,2
456787,0.199801,-9.309269,-0.066999,10.105015,-2.321524,-49.618106,2
456797,0.195015,-9.236290,-0.059821,8.302380,-2.032752,-47.561693,2
456807,0.185444,-9.151344,-0.052642,6.499750,-2.041502,-44.630237,2
456817,0.265603,-9.120239,-0.088534,5.642189,-1.918994,-40.666184,2
456827,0.265603,-9.120239,-0.161515,5.283411,-1.647725,-35.494554,2
456837,0.362512,-9.148952,-0.189033,5.117149,-1.245195,-29.771652,2
456847,0.502492,-9.132202,-0.189033,5.003391,-0.720157,-23.952477,2
456857,0.501296,-9.254234,-0.189033,3.988317,-0.160116,-18.422066,2
456867,0.501296,-9.254234,-0.172283,2.491958,0.268666,-13.504219,2
456877,0.530010,-9.479160,-0.118445,1.363125,0.723699,-9.601433,2
456887,0.510867,-9.576069,-0.094516,0.339300,1.029971,-6.984991,2
456897,0.447458,-9.544964,-0.094516,-1.253316,0.994969,-5.252363,2
456907,0.447458,-9.544964,-0.086142,-1.927115,1.126228,-4.018522,2
456917,0.416351,-9.571285,-0.122034,-2.644667,0.916213,-2.837188,2
456926,0.388834,-9.571285,-0.122034,-2.950940,0.872460,-1.489590,2
456936,0.372084,-9.583248,-0.133998,-3.178456,0.819956,0.041772,2
456946,0.357727,-9.568893,-0.156730,-3.064697,0.994969,1.765648,2
456956,0.317049,-9.637085,-0.163908,-2.907186,1.091226,3.533278,2
456965,0.278764,-9.723228,-0.174676,-2.784678,1.064973,4.828373,2
456975,0.247657,-9.767498,-0.174676,-2.810929,0.837457,5.519672,2
456985,0.229711,-9.848850,-0.177069,-2.942188,0.557436,5.764688,2
456995,0.199801,-9.888332,-0.209372,-2.863433,0.181159,5.432165,2
457005,0.177069,-9.829708,-0.226122,-2.565911,-0.107612,4.968382,2
457015,0.149551,-9.792622,-0.256032,-2.233387,-0.308877,4.697111,2
457025,0.138784,-9.803387,-0.263210,-1.988370,-0.483890,4.688360,2
457035,0.119641,-9.774673,-0.297906,-1.769604,-0.483890,4.959633,2
457045,0.093320,-9.792622,-0.348155,-1.375825,-0.308877,5.598427,2
457055,0.098106,-9.821335,-0.354137,-0.903291,-0.011355,6.158470,2
457065,0.128016,-9.929012,-0.339781,-0.640771,0.224912,6.219723,2
457075,0.125623,-10.098904,-0.362512,-0.229491,0.496182,5.449667,2
457085,0.069392,-10.120434,-0.390030,0.785583,0.706197,3.813297,2
457094,-0.017946,-9.960117,-0.407976,2.308194,0.837457,2.089422,2
457104,-0.058624,-9.821335,-0.461814,3.725798,1.196233,1.529381,2
459296,-2.939581,-10.164703,-0.863809,-16.759453,-5.996792,91.853485,2
459306,-2.742173,-10.989033,-0.955932,-15.525608,-5.226736,87.845678,2
459316,-2.685942,-11.334794,-0.971485,-12.707905,-3.852884,78.744998,2
459326,-2.804386,-11.434094,-0.958325,-9.960201,-2.199015,64.192691,2
459336,-3.096310,-11.527417,-0.937986,-7.291258,-0.475139,46.507659,2
459345,-3.369092,-11.486740,-0.849451,-4.666065,0.688696,27.921302,2
459355,-3.604786,-11.303688,-0.754935,-2.670918,1.143729,10.393776,2
459365,-3.812960,-11.010567,-0.705882,-0.632021,1.073724,-4.596066,2
459375,-3.872782,-10.785640,-0.690329,1.581890,0.522434,-16.531937,2
459384,-3.742372,-10.736588,-0.698704,3.892059,-0.212620,-25.877616,2
459394,-3.611963,-10.555931,-0.709471,7.331062,-0.650152,-33.788192,2
459404,-3.474376,-10.253239,-0.668793,10.341278,-0.930172,-40.709949,2
459414,-3.304485,-10.101292,-0.673579,11.373856,-1.332702,-46.529117,2
459423,-3.078364,-10.039082,-0.658026,11.522617,-1.437710,-51.525726,2
459433,-2.865403,-9.929012,-0.634098,11.575123,-1.227694,-55.874820,2
459443,-2.665603,-9.845264,-0.604187,11.146339,-0.825164,-55.402269,2
459453,-2.602192,-10.012760,-0.665204,12.493938,-0.195118,-54.063416,2
459463,-2.440678,-9.542572,-0.522831,14.174057,0.574938,-59.655061,2
459473,-2.280358,-9.493519,-0.518046,14.139057,1.222485,-61.142688,2
459483,-2.049452,-9.501892,-0.496510,13.430260,1.712521,-61.475220,2
459493,-1.840079,-9.372681,-0.404387,13.246498,2.368818,-62.044005,2
459503,-1.653440,-9.357128,-0.364905,12.406434,2.946361,-62.980332,2
459513,-1.514656,-9.269791,-0.312263,10.726311,3.497650,-65.491729,2
459523,-1.351943,-9.323627,-0.254835,9.702484,3.917682,-64.896698,2
459533,-1.266998,-9.348755,-0.232104,9.518719,4.293959,-61.798968,2
459543,-1.259820,-9.297306,-0.228514,9.737484,4.582727,-58.001223,2
459552,-1.238285,-9.123829,-0.173480,10.052506,4.486473,-54.500947,2
459562,-1.069591,-9.195610,-0.128016,8.984932,4.031441,-52.278290,2
459572,-0.898504,-9.371483,-0.123230,7.226053,3.655163,-50.466919,2
459582,-0.831505,-9.460018,-0.160319,6.823524,3.436397,-47.710466,2
459591,-0.793220,-9.366699,-0.124427,7.436069,3.436397,-44.586473,2
459601,-0.708275,-9.244667,-0.080159,6.823524,3.165127,-41.366243,2
459611,-0.626919,-9.328411,-0.092124,5.143402,2.780098,-37.874742,2
459621,-0.581455,-9.278164,-0.076570,3.997066,2.570083,-34.768264,2
459630,-0.528813,-9.390625,-0.090927,3.997066,2.570083,-31.425521,2
459640,-0.513260,-9.324821,-0.101695,3.253263,2.290063,-28.249046,2
459650,-0.474975,-9.297306,-0.108873,3.253263,2.290063,-28.249046,2
459660,-0.446261,-9.413357,-0.150748,2.413201,2.158804,-24.731293,2
459670,-0.410369,-9.420536,-0.163908,1.380626,1.948789,-21.134765,2
459680,-0.374477,-9.412163,-0.148355,0.278046,1.511256,-15.070580,2
459690,-0.360120,-9.604786,-0.181854,0.278046,1.511256,-15.070580,2
459700,-0.360120,-9.583248,-0.161515,-0.290746,1.178732,-12.322880,2
459710,-0.360120,-9.519836,-0.169890,0.085532,0.959966,-10.257733,2
459720,-0.324227,-9.647858,-0.204586,-0.071980,0.706197,-8.236332,2
459730,-0.314656,-9.666996,-0.197408,-0.553265,0.268666,-6.267439,2
459741,-0.324227,-9.635891,-0.184247,0.050529,0.154907,-3.134709,2
459751,-0.307477,-9.635891,-0.208175,0.444308,0.093653,-1.515841,2
459761,-0.296710,-9.688534,-0.244068,0.400554,0.076151,0.050523,2
459771,-0.262014,-9.688534,-0.256032,0.768081,0.321169,1.258111,2
459782,-0.247657,-9.684944,-0.258425,0.969346,0.697447,2.001916,2
459792,-0.247657,-9.692123,-0.246461,0.531814,1.056223,2.360691,2
459802,-0.253639,-9.811764,-0.254835,-0.588267,1.178732,2.360691,2
459812,-0.254835,-9.865601,-0.279960,-1.472082,1.222485,1.914409,2
459823,-0.327816,-9.778263,-0.287138,-1.174560,1.423750,1.266861,2
459833,-0.392423,-9.591621,-0.247657,-1.113306,1.467503,0.706821,2
459843,-0.436690,-9.604786,-0.283549,-2.863433,0.933714,0.829330,2
459853,-0.417547,-9.651443,-0.330209,-4.552307,0.531185,1.083098,2
459864,-0.375673,-9.748352,-0.366102,-4.954836,0.461179,1.424373,2
459874,-0.318245,-9.796211,-0.343370,-3.747248,0.863709,1.669391,2
459884,-0.267996,-9.866798,-0.337388,-2.749675,1.511256,1.940661,2
459894,-0.275174,-9.899101,-0.349352,-2.557161,2.150052,2.203180,2
459905,-0.326620,-9.901493,-0.370887,-1.918365,2.727595,2.605710,2
459915,-0.430708,-9.888332,-0.394816,-1.900863,3.033867,3.314511,2
459925,-0.556331,-9.726818,-0.409172,-2.504657,3.025116,4.067066,2
459935,-0.612562,-9.689728,-0.424726,-3.178456,2.710093,4.985882,2
459945,-0.635294,-9.694515,-0.423529,-3.502230,2.412572,5.659683,2
459955,-0.643669,-9.644264,-0.388834,-3.659741,2.036294,5.992207,2
459964,-0.606580,-9.710068,-0.401994,-3.834754,1.572511,6.097214,2
459974,-0.539581,-9.846458,-0.403190,-3.694744,1.292490,5.983456,2
459984,-0.484546,-9.864403,-0.373280,-3.187206,1.222485,5.545923,2
459994,-0.437886,-9.887138,-0.360120,-3.117202,1.239986,4.959633,2
460004,-0.406780,-9.976868,-0.352941,-3.020945,1.309991,4.250828,2
460014,-0.411565,-9.985241,-0.345763,-1.857110,1.555009,3.288260,2
460024,-0.452243,-9.958923,-0.302692,-0.737028,1.703770,2.588208,2
460034,-0.538385,-9.863209,-0.284746,-0.071980,1.598763,2.019417,2
463545,-3.631106,-7.658226,0.161515,-9.120140,7.767962,111.166131,2
463555,-4.128813,-7.779060,0.117248,-12.025353,8.931797,116.740298,2
463565,-4.453039,-8.376072,0.070588,-14.746803,10.034379,120.266807,2
463575,-4.689930,-8.866600,0.019143,-15.464356,11.084454,120.056796,2
463585,-4.920837,-9.032902,-0.033499,-14.116757,11.950768,116.276491,2
463594,-5.230707,-9.323627,-0.014357,-12.961674,12.694577,109.783543,2
463604,-5.672182,-9.547356,-0.063410,-11.937847,13.044598,100.341582,2
463614,-6.068193,-9.469589,-0.071785,-11.937847,13.044598,88.746977,2
463624,-6.443867,-9.390625,-0.105284,-9.767685,12.117032,76.872377,2
463633,-6.839880,-9.293716,-0.206979,-7.623783,12.117032,76.872377,2
463643,-7.160517,-9.147755,-0.265603,-5.768646,11.163212,64.831514,2
463653,-7.432102,-9.115452,-0.361316,-4.018518,9.885616,52.624359,2
463663,-7.481155,-9.168095,-0.390030,-3.055947,8.389259,40.749755,2
463672,-7.481155,-9.393021,-0.514457,-2.942188,7.032909,29.295166,2
463682,-7.409372,-9.281754,-0.524028,-1.927115,5.965332,18.155586,2
463692,-7.409372,-9.281754,-0.524028,1.153110,5.169022,6.543499,2
463702,-7.348352,-8.951542,-0.531206,3.918310,4.757742,-4.491055,2
463712,-7.256229,-8.889328,-0.531206,5.458424,4.556479,-14.108013,2
463722,-7.070786,-8.770885,-0.445065,6.753519,4.503975,-23.199921,2
463732,-7.070786,-8.770885,-0.445065,7.847347,4.293959,-31.880562,2
463742,-6.934397,-8.811565,-0.344566,8.696156,4.075193,-40.071168,2
463752,-6.783648,-8.913258,-0.344566,9.457470,3.917682,-47.911730,2
463761,-6.604185,-8.817543,-0.321834,10.840069,3.742669,-55.507278,2
463771,-6.388832,-8.620136,-0.262014,12.065156,3.480149,-61.991515,2
463781,-6.155531,-8.559120,-0.265603,12.826465,3.156376,-66.961856,2
463791,-5.917446,-8.516048,-0.214157,13.509010,2.736345,-71.302156,2
463800,-5.714058,-8.366497,-0.169890,13.946542,2.342566,-74.776187,2
463810,-5.479559,-8.364105,-0.099302,13.675278,1.730022,-77.042575,2
463820,-5.243868,-8.453838,-0.035892,13.220242,1.126228,-78.985229,2
463830,-5.081156,-8.405983,-0.005982,13.281498,0.434928,-80.542850,2
463839,-4.920837,-8.218143,0.052642,13.325253,-0.265124,-81.181641,2
463849,-4.689930,-8.161911,0.074177,12.257671,-1.061432,-80.481567,2
463859,-4.475771,-8.303089,0.029910,11.216344,-1.708979,-78.486452,2
463869,-4.334595,-8.309071,0.038285,11.163845,-2.242767,-76.141267,2
463879,-4.137188,-8.196609,0.081356,10.673802,-2.890315,-73.481078,2
463889,-3.979261,-8.405983,0.084945,9.658730,-3.642870,-70.304599,2
463899,-3.869191,-8.549549,0.080159,9.501221,-4.334169,-67.556887,2
463909,-3.757926,-8.441872,0.082552,10.070012,-4.771704,-64.861693,2
463919,-3.693319,-8.252838,0.119641,9.579975,-5.042973,-61.790223,2
463929,-3.639482,-8.200199,0.087338,7.514824,-5.182983,-57.808671,2
463940,-3.507875,-8.293518,0.071785,4.880882,-5.261738,-53.328371,2
463950,-3.384645,-8.542374,0.062213,3.227012,-5.375498,-48.874297,2
463961,-3.107078,-8.638084,0.141176,2.964492,-5.559261,-44.805255,2
463982,-3.031705,-8.754135,0.132802,2.719475,-5.953039,-37.139680,2
463992,-3.031705,-8.754135,0.132802,1.975670,-5.891785,-33.306885,2
464002,-2.945562,-8.809170,0.154337,1.371875,-5.743023,-29.867905,2
464011,-2.861814,-8.879757,0.157926,0.733079,-5.393000,-26.498916,2
464021,-2.825922,-8.924026,0.168694,0.505562,-4.929214,-23.593698,2
464031,-2.827118,-8.880955,0.212961,0.400554,-4.587938,-21.117265,2
464041,-2.835493,-8.941971,0.246461,-0.211990,-4.360422,-18.684593,2
464050,-2.901295,-8.979061,0.241675,-0.798283,-4.351671,-16.426926,2
464060,-2.882154,-9.006580,0.240479,-1.174560,-4.351671,-14.256772,2
464070,-2.880957,-9.068790,0.220140,-1.542087,-4.351671,-12.077866,2
464080,-2.819940,-9.129807,0.222532,-1.769604,-4.272917,-9.986462,2
464089,-2.729012,-9.195610,0.198604,-1.822107,-4.019148,-8.210079,2
464099,-2.639282,-9.213558,0.202193,-1.594591,-3.677872,-7.098747,2
464109,-2.562711,-9.181255,0.206979,-1.620842,-3.144083,-6.547459,2
464119,-2.536390,-9.190826,0.150748,-2.312143,-2.312773,-5.794903,2
464129,-2.532801,-9.059219,0.166301,-3.432225,-1.367704,-5.558636,2
464139,-2.610567,-8.894115,0.470189,-5.479874,-0.098861,-5.164856,2
464149,-2.677567,-9.120239,-0.101695,-9.662678,1.003719,-3.414729,2
464159,-2.803190,-9.595211,0.163908,-7.982557,0.216162,-3.169712,2
464169,-2.707478,-8.857029,0.221336,-4.981089,1.117477,-3.887263,2
464179,-2.822331,-9.096310,0.195015,-6.599957,1.012470,-1.550844,2
464189,-2.878563,-9.574875,0.138784,-6.932482,0.784953,0.313042,2
464199,-2.791225,-9.115452,0.214157,-5.287361,0.697447,0.339294,2
464209,-2.928813,-9.160915,0.189033,-6.319937,0.259915,1.529381,2
464218,-2.963509,-9.509071,0.094516,-7.440020,-0.396383,2.614460,2
464228,-2.915652,-9.373875,0.106481,-6.389940,-1.157689,2.798223,2
464238,-2.895313,-9.278164,0.101695,-5.812399,-1.778984,3.262008,2
464248,-2.985044,-9.305683,0.061017,-5.908657,-2.584043,3.752044,2
464257,-2.983849,-9.445660,-0.009571,-5.567383,-3.301596,4.172073,2
464267,-2.926419,-9.385841,-0.004786,-4.517305,-3.677872,4.163324,2
464277,-2.946759,-9.293716,-0.003589,-3.685993,-4.010397,4.268330,2
464287,-2.937187,-9.409771,-0.009571,-3.405973,-4.246664,4.767117,2
466474,-3.396609,-8.185841,-0.259621,-4.018518,12.484559,96.972599,2
466484,-4.226919,-8.048256,-0.317049,-3.467227,13.377125,102.861786,2
466494,-4.226919,-8.048256,-0.317049,-2.679669,14.129681,107.919681,2
466504,-4.657627,-7.946558,-0.543170,-1.270817,15.153507,111.769927,2
466514,-4.950747,-8.145161,-0.803988,-0.579517,16.938629,113.773835,2
466524,-5.442471,-8.565102,-0.812363,-0.579517,19.222542,112.863767,2
466534,-5.442471,-8.565102,-0.812363,-0.299496,21.593971,108.680940,2
466544,-5.714058,-8.617744,-0.783649,-0.387003,23.475358,101.811707,2
466554,-6.045462,-8.642868,-0.636491,-0.947044,24.709198,93.524847,2
466564,-6.327816,-8.642868,-0.636491,-1.235815,25.164239,84.966736,2
466574,-6.592222,-8.438282,-0.576670,-0.719527,24.796708,76.741090,2
466584,-6.960718,-8.085342,-0.570688,0.374303,23.816628,69.731841,2
466593,-7.367496,-7.987236,-0.559920,1.135608,22.399032,64.253969,2
466603,-7.619940,-8.194218,-0.573081,0.943094,20.578904,59.248595,2
466613,-7.806580,-8.461014,-0.608973,0.663074,18.443733,52.738113,2
466623,-7.975273,-8.870190,-0.601794,0.645572,16.133575,43.392425,2
466632,-8.093719,-9.269791,-0.644865,0.715577,13.770908,31.001527,2
466642,-8.210964,-9.504284,-0.687936,1.494384,11.513237,16.002937,2
466652,-8.201393,-9.450447,-0.741775,2.859484,9.334324,-0.054485,2
466662,-8.176270,-9.309269,-0.760917,4.303339,7.435438,-15.700630,2
466672,-8.068592,-9.172878,-0.789631,5.379667,5.834072,-30.095429,2
466682,-7.905882,-9.079559,-0.814755,6.403492,4.390217,-43.422637,2
466692,-7.702492,-8.961117,-0.771685,7.514824,3.042617,-55.769792,2
466702,-7.466799,-8.846260,-0.717846,8.739910,1.835030,-66.471801,2
466712,-7.258623,-8.745762,-0.710668,9.947502,0.609940,-75.616241,2
466722,-7.001394,-8.689529,-0.684347,11.303853,-0.597648,-83.439302,2
466732,-6.669991,-8.621334,-0.679561,12.773961,-1.717729,-90.124788,2
466742,-6.327816,-8.539978,-0.616152,14.095306,-2.575293,-95.725193,2
466752,-5.968891,-8.453838,-0.599402,14.874115,-3.284094,-100.188017,2
466762,-5.666199,-8.324623,-0.551545,15.600414,-3.870384,-103.355742,2
466772,-5.343168,-8.176270,-0.490528,16.317963,-4.290417,-105.000854,2
466782,-4.984245,-8.096111,-0.411565,16.641740,-4.736700,-105.009639,2
466792,-4.680359,-8.045860,-0.315852,16.641740,-5.191734,-104.012048,2
466801,-4.423130,-7.939381,-0.269192,16.344216,-5.690519,-101.938140,2
466811,-4.124027,-7.953737,-0.210568,15.434147,-6.259312,-98.805456,2
466821,-3.860817,-8.020737,-0.203390,14.042806,-6.679342,-95.007629,2
466831,-3.644267,-8.096111,-0.193819,13.053982,-7.011868,-90.536041,2
466840,-3.436091,-8.114056,-0.160319,11.767635,-7.151876,-85.740728,2
466850,-3.231504,-8.076969,-0.147159,9.877499,-7.081871,-80.472841,2
466860,-3.046062,-8.061417,-0.131605,8.074863,-6.705593,-74.592376,2
466870,-2.912063,-8.151146,-0.130409,6.666012,-5.953039,-68.143191,2
466880,-2.792422,-8.281551,-0.135194,5.930960,-5.235485,-61.370196,2
466891,-2.684746,-8.349751,-0.112463,5.764696,-4.579187,-54.623461,2
466901,-2.633299,-8.384445,-0.099302,5.650938,-3.914139,-47.937975,2
466912,-2.629710,-8.461014,-0.055035,5.152153,-3.441606,-41.663756,2
466922,-2.617746,-8.526817,-0.014357,4.277088,-3.126581,-36.054611,2
466933,-2.616550,-8.629711,0.005982,3.279514,-3.109081,-30.979233,2
466943,-2.635692,-8.752941,0.056231,2.483207,-3.432856,-26.638932,2
466954,-2.640478,-8.813957,0.080159,2.054425,-4.167908,-22.841148,2
466964,-2.628514,-8.864204,0.078963,1.546887,-5.060474,-19.402145,2
466975,-2.634496,-9.008972,0.001196,0.995599,-5.883034,-16.103149,2
466985,-2.611764,-9.044865,-0.031107,0.864339,-6.556833,-13.180447,2
466995,-2.611764,-9.044865,-0.031107,0.724328,-7.134377,-10.572751,2
467005,-2.616550,-9.120239,-0.074177,0.435558,-7.440647,-8.192577,2
467015,-2.633299,-9.229111,-0.077767,0.146786,-7.746922,-6.232435,2
467025,-2.647656,-9.189629,-0.076570,0.129285,-8.201950,-4.736076,2
467035,-2.647656,-9.189629,-0.076570,0.094282,-8.700737,-3.545990,2
467045,-2.654835,-9.230309,-0.090927,-0.045728,-9.444542,-2.504663,2
467055,-2.633299,-9.221931,-0.151944,-0.316998,-10.599625,-1.787111,2
467065,-2.560319,-9.201595,-0.240479,-0.299496,-11.999733,-1.244571,2
467075,-2.560319,-9.201595,-0.240479,-0.176987,-13.303574,-0.378258,2
467085,-2.530408,-9.248253,-0.369691,0.111784,-14.108639,1.188106,2
467094,-2.579460,-9.245861,-0.369691,1.179362,-14.301147,3.393268,2
467104,-2.672780,-9.260220,-0.336191,2.631968,-13.986123,6.009708,2
467114,-2.733798,-9.385841,-0.309870,3.708296,-13.391083,8.529892,2
467124,-2.787636,-9.505482,-0.256032,4.592110,-12.472267,10.332524,2
467133,-2.801993,-9.524624,-0.205783,5.773449,-11.282181,11.190087,2
467143,-2.880957,-9.486340,-0.161515,6.963533,-9.952080,11.365098,2
467153,-2.914456,-9.438484,-0.162712,7.549828,-8.543228,11.338848,2
467163,-2.952742,-9.383446,-0.149551,7.689835,-6.801851,10.980072,2
467172,-3.004187,-9.273380,-0.107677,7.357315,-4.920464,10.332524,2
467182,-3.098702,-9.260220,-0.037089,6.526001,-3.056577,9.702477,2
467192,-3.198006,-9.278164,0.005982,5.642189,-1.455211,8.984928,2
467202,-3.311665,-9.221931,0.070588,4.968390,-0.422635,8.109859,2
467212,-3.378664,-9.244667,0.100498,4.102074,0.373673,7.287302,2
469580,-3.805782,-7.574476,-0.222532,-13.827984,8.030483,108.899713,2
469589,-4.137188,-7.630707,-0.205783,-15.219338,8.222996,116.364014,2
469599,-4.608574,-7.785044,-0.195015,-15.866883,8.222996,122.104430,2
469609,-5.088333,-8.155930,-0.171087,-15.779381,7.557947,125.490963,2
469619,-5.408972,-8.836689,-0.267996,-14.816811,6.262852,126.112247,2
469629,-5.631506,-9.189629,-0.411565,-14.816811,6.262852,126.112247,2
469639,-5.867197,-9.069988,-0.454636,-6.941233,3.436397,116.224027,2
469649,-6.241674,-8.786438,-0.528813,-3.913509,2.158804,107.753384,2
469659,-6.787237,-8.547157,-0.625723,-2.504657,1.108727,97.952700,2
469669,-7.301693,-8.512463,-0.655633,-2.504657,1.108727,97.952700,2
469678,-7.684546,-8.717049,-0.766899,-3.038446,0.023648,74.693484,2
469688,-7.867596,-9.041275,-0.885344,-4.946087,-1.008928,74.693484,2
469698,-7.952541,-9.206379,-1.000199,-6.328688,-1.840238,61.304994,2
469708,-7.978861,-9.042469,-1.033699,-6.118671,-2.172762,46.560168,2
469717,-7.982452,-8.719440,-1.046859,-5.042343,-2.050253,31.045282,2
469727,-7.972881,-8.504086,-1.103091,-4.342293,-1.420208,16.046685,2
469737,-7.929810,-8.344963,-1.112662,-4.219782,-0.536393,2.675714,2
469747,-7.929810,-8.344963,-1.112662,-3.931011,0.434928,-9.058895,2
469756,-7.822132,-8.219337,-1.133001,-3.292214,1.353745,-19.200882,2
469766,-7.664206,-8.169090,-1.133001,-2.802178,2.351317,-28.091531,2
469776,-7.505083,-8.261215,-1.107876,-2.504657,3.401394,-36.203370,2
469786,-7.343567,-8.297108,-1.077966,-1.620842,4.460220,-44.008942,2
469796,-7.144964,-8.305481,-1.018145,-0.439507,5.379038,-51.236968,2
469806,-6.941574,-8.315052,-0.979860,0.671825,6.061586,-57.904954,2
469816,-6.741774,-8.274376,-0.899701,2.124431,6.569124,-63.942885,2
469826,-6.530008,-8.280357,-0.814755,3.244513,6.761639,-69.035735,2
469836,-6.296707,-8.327019,-0.789631,4.259586,6.621630,-73.411040,2
469846,-6.061016,-8.306679,-0.794416,5.458424,6.376612,-77.593875,2
469856,-5.854036,-8.270786,-0.780060,6.245983,6.105341,-81.312866,2
469866,-5.528612,-7.965702,-0.721436,7.698586,5.720312,-85.906982,2
469880,-5.388632,-7.881954,-0.635294,8.267376,5.239027,-85.539465,2
469890,-5.233101,-7.988434,-0.608973,9.011185,4.538977,-83.308048,2
469901,-5.026119,-7.996809,-0.577866,10.096260,3.611409,-80.542850,2
469911,-4.801195,-7.927418,-0.533599,10.577549,2.648838,-77.523894,2
469921,-4.639679,-7.904684,-0.514457,9.956253,1.625015,-74.259887,2
469931,-4.526022,-7.887934,-0.502492,8.871174,0.592439,-71.013398,2
469941,-4.405184,-7.866398,-0.483350,7.357315,-0.422635,-67.583160,2
469951,-4.274775,-7.988434,-0.506082,5.738445,-1.096435,-63.505359,2
469961,-4.150349,-8.149948,-0.520439,4.907133,-1.551467,-58.841262,2
469970,-3.975673,-8.201393,-0.527617,4.845881,-1.910244,-54.019685,2
469980,-3.787835,-8.263607,-0.552742,4.618362,-1.822737,-48.813033,2
469990,-3.663408,-8.340176,-0.573081,4.425850,-1.463961,-43.632674,2
470000,-3.608375,-8.388035,-0.558724,4.277088,-0.912671,-38.811052,2
470009,-3.572482,-8.439480,-0.534796,3.629539,-0.370131,-34.531982,2
470019,-3.607178,-8.482552,-0.538385,2.754477,-0.098861,-30.882974,2
470029,-3.603588,-8.463409,-0.515653,2.754477,-0.098861,-27.715256,2
470039,-3.591624,-8.536388,-0.521635,1.791906,-0.177617,-24.643784,2
470048,-3.578464,-8.633297,-0.518046,0.549316,-0.177617,-24.643784,2
470058,-3.542572,-8.701492,-0.494118,-0.316998,-0.378882,-21.729813,2
470068,-3.512661,-8.846260,-0.478564,-0.588267,-0.536393,-18.955856,2
470078,-3.504287,-8.963509,-0.498903,-0.605769,-0.807663,-16.199410,2
470088,-3.504287,-8.957527,-0.513260,-0.098232,-1.105185,-13.880494,2
470098,-3.383449,-8.985043,-0.539581,0.593068,-1.297698,-12.034111,2
470108,-3.370289,-8.963509,-0.556331,1.126858,-1.341453,-10.572751,2
470118,-3.387037,-8.945564,-0.540777,1.564389,-1.183940,-9.610184,2
470128,-3.434895,-8.955132,-0.521635,1.651896,-0.860167,-8.918884,2
470138,-3.493519,-8.931206,-0.491725,1.599392,-0.632650,-7.457525,2
470148,-3.552143,-8.903687,-0.474975,1.590641,-0.597648,-7.457525,2
470158,-3.611963,-8.941971,-0.484546,1.511886,-0.597648,-6.354944,2
470168,-3.641874,-8.941971,-0.484546,1.345624,-0.667653,-4.867334,2
470177,-3.664606,-8.944366,-0.464207,1.380626,-0.842666,-3.484734,2
470187,-3.664606,-8.944366,-0.464207,1.249367,-1.043931,-2.180890,2
470197,-3.706480,-9.048454,-0.439083,0.864339,-1.463961,-1.183317,2
470207,-3.738783,-9.048454,-0.439083,0.505562,-2.120259,-0.675780,2
470216,-3.760319,-9.044865,-0.449850,0.339300,-2.916567,-0.483266,2
470226,-3.742372,-9.053238,-0.470189,0.173038,-3.537861,-0.509518,2
470236,-3.702890,-9.097507,-0.484546,0.330550,-3.870384,-0.562022,2
470246,-3.717247,-9.109470,-0.509671,0.899341,-3.896639,-0.632027,2
470255,-3.710070,-9.048454,-0.530010,1.520637,-3.922890,-0.667029,2
470265,-3.696908,-9.028114,-0.540777,1.756903,-3.800381,-0.483266,2
470275,-3.693319,-9.073578,-0.551545,1.800656,-3.590366,-0.264500,2
470285,-3.694515,-9.144165,-0.524028,1.748153,-3.371600,-0.343256,2
470295,-3.698106,-9.072380,-0.526421,1.608143,-3.310346,-0.658278,2
470305,-3.677766,-9.136990,-0.485743,1.328123,-3.231589,-0.929548,2
470315,-3.681355,-9.166897,-0.507278,1.100605,-3.345347,-1.454587,2
472913,-4.185043,-8.567497,-0.781256,-16.986970,0.041149,89.998350,2
472922,-4.382452,-8.720638,-0.857826,-16.759453,-0.081360,91.415958,2
472932,-4.644466,-8.565102,-0.868594,-15.761880,-0.536393,90.803404,2
472942,-4.983049,-8.536388,-0.973878,-14.843060,-1.008928,89.569578,2
472952,-5.387436,-8.675175,-1.064805,-13.539215,-1.630223,87.556887,2
472962,-5.714058,-8.784046,-1.099502,-12.034104,-2.199015,83.916655,2
472972,-5.979660,-8.993416,-1.148554,-10.590248,-2.846562,78.771272,2
472982,-6.224924,-9.187237,-1.178464,-8.840118,-3.441606,71.604495,2
472992,-6.474976,-9.226719,-1.222732,-6.486198,-3.940392,62.425065,2
473002,-6.675970,-9.199203,-1.249053,-4.254784,-4.552937,52.186847,2
473012,-6.829111,-9.141773,-1.310070,-2.303392,-4.999218,41.327286,2
473022,-6.971485,-9.116646,-1.354337,-0.597018,-5.244236,30.003960,2
473032,-7.061214,-9.125023,-1.373479,0.864339,-5.401747,18.269348,2
473042,-7.076769,-9.177666,-1.361515,1.984420,-5.305490,6.350983,2
473051,-7.043270,-9.254234,-1.377069,1.984420,-5.305490,-5.374872,2
473061,-7.018145,-9.025719,-1.387836,5.834702,-4.456678,-16.934464,2
473071,-6.972681,-8.793617,-1.258624,5.834702,-4.456678,-16.934464,2
473081,-6.908073,-8.825920,-1.219142,7.479824,-3.966642,-27.645249,2
473090,-6.839880,-8.851044,-1.141376,7.742340,-3.660372,-37.297196,2
473100,-6.736986,-8.764904,-1.085144,8.521145,-3.537861,-46.502872,2
473110,-6.567097,-8.794815,-1.002592,9.807491,-3.625368,-55.262270,2
473120,-6.403191,-8.811565,-0.970289,10.542549,-3.774128,-63.155336,2
473130,-6.403191,-8.811565,-0.970289,11.216344,-4.097904,-70.645876,2
473140,-5.991625,-8.495712,-0.836291,11.863892,-4.386675,-77.628846,2
473150,-5.991625,-8.495712,-0.772881,12.126411,-4.579187,-83.430548,2
473160,-5.513060,-8.488533,-0.758524,11.855145,-4.657944,-87.849607,2
473170,-5.513060,-8.488533,-0.758524,11.767635,-4.631691,-90.929842,2
473180,-4.931604,-8.323425,-0.690329,12.135162,-4.561687,-93.012514,2
473190,-4.931604,-8.323425,-0.665204,12.686452,-4.325418,-93.966341,2
473200,-4.382452,-8.158321,-0.644865,12.983979,-3.949142,-93.625031,2
473210,-4.382452,-8.158321,-0.644865,13.176491,-3.424104,-92.303715,2
473219,-4.113260,-8.118843,-0.524028,13.080231,-2.977821,-90.194798,2
473229,-3.902691,-8.076969,-0.524028,12.747707,-2.470284,-87.438326,2
473239,-3.732801,-7.958523,-0.483350,11.986401,-2.146510,-83.946838,2
473249,-3.560518,-7.969292,-0.439083,10.647553,-1.892743,-79.370270,2
473258,-3.439680,-8.091324,-0.427119,9.343712,-1.525215,-73.822327,2
473268,-3.332004,-8.153538,-0.400797,8.468643,-1.245195,-67.661867,2
473278,-3.235094,-8.190624,-0.356530,7.786091,-1.201442,-61.195192,2
473288,-3.131006,-8.305481,-0.378066,7.269808,-1.236444,-54.185929,2
473297,-3.046062,-8.464603,-0.403190,7.313560,-1.210193,-46.879153,2
473307,-2.943170,-8.513657,-0.439083,8.188622,-0.991427,-39.493591,2
473317,-2.823529,-8.690727,-0.485743,9.404961,-0.623899,-31.758041,2
473327,-2.782850,-8.766102,-0.503689,11.225094,-0.186368,-24.617524,2
473337,-2.794815,-8.669189,-0.485743,12.800210,-0.011355,-18.308319,2
473347,-2.810368,-8.626122,-0.451047,12.677701,-0.011355,-12.979180,2
473357,-2.843867,-8.676369,-0.423529,11.085087,-0.177617,-8.840126,2
473367,-2.871386,-8.712261,-0.366102,8.801170,-0.466388,-6.004917,2
473377,-2.901295,-8.823528,-0.334995,6.149725,-0.711406,-4.001020,2
473387,-2.962313,-8.981453,-0.301496,4.049570,-0.816414,-2.565917,2
473397,-3.016150,-8.981453,-0.272782,2.561963,-1.078933,-1.708355,2
473407,-3.052044,-9.002991,-0.258425,1.389377,-1.288949,-0.868294,2
473417,-3.034097,-9.164505,-0.276371,0.313048,-1.341453,0.111778,2
473426,-3.008973,-9.226719,-0.343370,0.208041,-1.078933,0.934338,2
473436,-3.008973,-9.186039,-0.373280,0.750581,-0.580146,1.721895,2
473446,-3.023330,-9.147755,-0.406780,0.628072,-0.055108,2.334439,2
473456,-3.011365,-9.189629,-0.430708,-0.071980,0.592439,2.500702,2
473465,-3.036489,-9.217148,-0.418744,-0.999547,1.344994,1.975664,2
473475,-3.096310,-9.209969,-0.362512,-2.023372,2.001292,1.013093,2
473485,-3.182452,-9.220734,-0.319442,-2.740924,2.316315,0.050523,2
473495,-3.286540,-9.242271,-0.323031,-2.819679,2.290063,-0.509518,2
473505,-3.335592,-9.280556,-0.332602,-2.312143,2.010042,-0.422011,2
473515,-3.335592,-9.270985,-0.354137,-1.542087,1.633765,0.094276,2
473525,-3.326021,-9.123829,-0.372084,-0.868288,1.213735,0.689320,2
473535,-3.314057,-9.053238,-0.392423,-0.912041,0.784953,1.223108,2
473545,-3.326021,-9.153736,-0.413958,-1.725850,0.426177,1.721895,2
473555,-3.333200,-9.202789,-0.446261,-2.443403,0.093653,1.809401,2
473565,-3.323628,-9.170486,-0.404387,-2.915936,-0.195118,1.485627,2
473575,-3.311665,-9.245861,-0.423529,-3.414723,-0.413884,1.301864,2
473585,-3.316449,-9.360718,-0.451047,-3.414723,-0.536393,1.048096,2
473594,-3.290129,-9.257824,-0.490528,-2.600914,-0.510141,0.715571,2
473608,-3.290129,-9.257824,-0.490528,-1.883362,-0.326378,0.794327,2
473618,-3.276968,-9.275772,-0.533599,-1.375825,-0.107612,1.135602,2
473628,-3.293717,-9.215950,-0.544367,-0.877038,0.207411,1.310615,2
473638,-3.274576,-9.168095,-0.563509,-0.920792,0.583688,1.459375,2
473648,-3.282951,-9.247059,-0.540777,-1.437079,0.889961,1.406872,2
476226,-3.144166,-8.236088,-0.468993,-1.008298,0.399925,98.985262,2
476236,-3.284147,-7.380655,-0.464207,-0.798283,1.476254,104.305637,2
476246,-3.641874,-6.823130,-0.459422,-3.090949,3.130124,110.457361,2
476255,-4.231705,-6.746559,-0.468993,-7.483772,4.950254,115.707731,2
476265,-4.944765,-6.973877,-0.515653,-11.841592,6.289104,118.779171,2
476275,-5.613558,-7.479959,-0.496510,-15.683121,7.015408,119.050444,2
476285,-6.189032,-8.389233,-0.490528,-18.947105,7.006655,115.900230,2
476295,-6.634096,-9.086739,-0.527617,-20.014687,6.210348,108.698487,2
476305,-6.874575,-9.107079,-0.597009,-18.325806,4.941505,98.521490,2
476315,-6.978662,-8.983845,-0.647258,-16.286911,3.628911,87.810669,2
476325,-7.062412,-8.926418,-0.772881,-14.878063,2.491328,77.301178,2
476335,-7.197607,-8.532799,-0.930808,-12.812912,1.651267,66.669130,2
476344,-7.405781,-8.177467,-0.977468,-11.692829,0.863709,57.017198,2
476354,-7.715652,-8.280357,-1.077966,-12.646649,0.294917,48.082781,2
476364,-8.013557,-8.861813,-1.135394,-12.646649,0.294917,38.010788,2
476374,-8.140377,-9.253040,-1.177268,-13.985497,-1.708979,25.628641,2
476383,-8.170288,-9.339180,-1.174875,-13.784230,-1.708979,25.628641,2
476393,-8.172680,-9.215950,-1.183250,-12.130364,-3.082829,11.855137,2
476403,-8.079361,-8.998203,-1.214356,-10.030205,-4.465431,-1.900869,2
476413,-7.891523,-8.849850,-1.221535,-8.122570,-5.760527,-14.641804,2
476422,-7.891523,-8.739777,-1.183250,-6.346188,-6.784348,-26.122644,2
476432,-7.418941,-8.641674,-1.158125,-4.666065,-7.466900,-36.343369,2
476442,-7.418941,-8.641674,-1.158125,-3.152204,-7.921932,-45.592804,2
476452,-7.112661,-8.596210,-1.144965,-1.927115,-8.114445,-53.844666,2
476462,-6.815950,-8.621334,-1.144965,-0.518262,-8.026939,-61.326447,2
476472,-6.291924,-8.609371,-1.098305,1.126858,-7.624409,-68.405671,2
476482,-6.291924,-8.609371,-1.098305,2.763227,-7.134377,-74.986176,2
476492,-6.045462,-8.591423,-1.048056,4.075825,-6.338068,-80.849094,2
476502,-5.804985,-8.487335,-1.048056,5.379667,-5.419249,-85.889502,2
476511,-5.568094,-8.288731,-0.963110,6.526001,-4.474180,-89.696016,2
476521,-5.325222,-8.183449,-0.894915,6.919783,-3.441606,-91.944914,2
476531,-5.087137,-8.238483,-0.867398,7.112295,-2.592793,-92.889986,2
476541,-4.869390,-8.227715,-0.786041,7.724838,-1.796484,-93.257513,2
476550,-4.671984,-8.132004,-0.729810,8.398640,-1.201442,-92.636204,2
476560,-4.476969,-8.164307,-0.687936,8.827419,-0.860167,-90.728579,2
476570,-4.298702,-8.182251,-0.660419,9.518719,-0.641400,-87.875853,2
476580,-4.100100,-8.184643,-0.630508,10.542549,-0.483890,-84.288092,2
476590,-3.936191,-8.212162,-0.574277,11.478863,-0.606399,-80.271578,2
476600,-3.872782,-8.193020,-0.514457,12.152665,-1.017679,-76.150026,2
476611,-3.809371,-8.228912,-0.449850,12.397683,-1.918994,-71.730928,2
476621,-3.777069,-8.299500,-0.410369,12.598946,-3.187837,-66.813049,2
476631,-3.750747,-8.405983,-0.374477,13.220242,-4.745449,-61.798968,2
476641,-3.668195,-8.445461,-0.403190,13.762779,-6.513081,-56.723619,2
476652,-3.585643,-8.505283,-0.415154,13.981549,-8.053192,-51.910768,2
476662,-3.470787,-8.553139,-0.412762,13.334000,-9.330784,-47.789216,2
476672,-3.315253,-8.543568,-0.427119,11.898899,-10.092087,-44.490218,2
476682,-3.177666,-8.549549,-0.451047,10.140015,-10.354611,-41.488757,2
476692,-3.078364,-8.620136,-0.451047,8.232372,-10.170845,-38.741043,2
476702,-3.013758,-8.665600,-0.476171,6.762270,-9.575802,-36.177125,2
476712,-2.930010,-8.654835,-0.494118,5.895958,-8.770744,-33.473160,2
476722,-2.867797,-8.690727,-0.498903,4.915884,-7.790672,-30.541718,2
476732,-2.845063,-8.785240,-0.498903,3.795801,-6.635588,-27.417734,2
476742,-2.824725,-8.834293,-0.510867,3.087000,-5.305490,-24.311256,2
476752,-2.811565,-8.813957,-0.508475,2.483207,-4.045399,-21.283531,2
476761,-2.805583,-8.870190,-0.491725,1.511886,-2.846562,-18.334557,2
476771,-2.807975,-8.989830,-0.494118,0.698076,-1.883992,-15.630623,2
476781,-2.782850,-9.073578,-0.463011,0.321799,-1.035180,-13.381710,2
476791,-2.774475,-9.132202,-0.449850,0.050529,-0.422635,-11.570328,2
476800,-2.788834,-9.145359,-0.455832,-0.063229,0.041149,-10.117722,2
476810,-2.841475,-9.140575,-0.448654,-0.098232,0.443678,-8.988888,2
476820,-2.847457,-9.188431,-0.458225,-0.281995,0.714948,-7.973810,2
476830,-2.852242,-9.230309,-0.482153,-0.273244,0.898711,-7.116247,2
476839,-2.859422,-9.193218,-0.473778,-0.010725,1.038722,-6.398699,2
476849,-2.863010,-9.169292,-0.466600,0.120534,1.239986,-5.593637,2
476859,-2.871386,-9.192020,-0.491725,0.190540,1.476254,-4.604816,2
476869,-2.868993,-9.217148,-0.464207,0.181789,1.668768,-3.589742,2
476879,-2.868993,-9.227917,-0.471386,-0.071980,1.817528,-2.732180,2
476889,-2.898903,-9.287735,-0.465404,-0.150735,1.913785,-2.032128,2
476899,-2.909670,-9.382252,-0.466600,-0.176987,2.045045,-1.594597,2
476909,-2.900099,-9.414555,-0.464207,-0.028227,2.202557,-1.524592,2
476919,-2.907278,-9.385841,-0.452243,0.199290,2.333817,-1.699605,2
476929,-2.925224,-9.354733,-0.461814,0.435558,2.535081,-1.822114,2
476939,-2.933599,-9.345161,-0.468993,0.785583,2.701343,-1.708355,2
476949,-2.941974,-9.303288,-0.470189,1.153110,2.928860,-1.358330,2
476959,-2.959919,-9.245861,-0.474975,1.284369,3.025116,-0.789538,2
479316,-3.131006,-6.693918,-1.088734,12.336429,29.679565,113.283777,2
479326,-3.987637,-6.533598,-1.025324,11.531368,29.679565,113.283777,2
479336,-4.911264,-6.905682,-0.910469,5.852203,32.593522,121.929443,2
479346,-5.596807,-7.481155,-0.781256,-1.200812,31.840959,130.767512,2
479356,-5.965302,-8.282749,-0.648454,-12.139111,28.830757,129.166138,2
479366,-6.230906,-9.145359,-0.598205,-12.139111,28.830757,129.166138,2
479376,-6.591026,-9.528214,-0.598205,-14.816811,25.172982,122.515750,2
479385,-6.935593,-9.412163,-0.553938,-14.186760,21.226442,110.763609,2
479395,-7.281353,-9.163307,-0.561116,-12.480385,17.122392,96.123781,2
479405,-7.622332,-8.977863,-0.674776,-12.130364,12.825832,81.011419,2
479415,-7.880756,-8.831902,-0.780060,-12.655400,8.564270,66.485381,2
479424,-7.880756,-8.831902,-0.780060,-13.057930,4.565226,52.991900,2
479434,-8.005184,-8.572281,-0.981057,-13.162934,0.916213,40.854754,2
479444,-8.033897,-8.572281,-0.981057,-13.285446,-2.479034,29.942703,2
479454,-8.045860,-8.563908,-1.077966,-13.294197,-5.480505,19.634453,2
479464,-8.020737,-8.663208,-1.171286,-13.591721,-8.263206,9.693726,2
479474,-7.957329,-8.717049,-1.266998,-13.276695,-10.739640,-0.483266,2
479484,-7.842470,-8.646461,-1.313659,-12.375382,-12.979805,-10.809021,2
479494,-7.727615,-8.701492,-1.347158,-12.042855,-14.826187,-20.854752,2
479504,-7.469191,-8.926418,-1.416550,-11.386555,-16.217530,-30.716729,2
479518,-7.251446,-8.788830,-1.379461,-7.536278,-17.775147,-49.565582,2
479528,-7.002590,-8.648853,-1.357926,-5.261106,-18.046417,-57.353668,2
479538,-6.740578,-8.610565,-1.328016,-3.055947,-18.046417,-63.951645,2
479547,-6.497705,-8.530407,-1.293320,-0.885789,-17.976418,-69.849548,2
479557,-6.223728,-8.587833,-1.251445,0.986848,-17.766396,-75.099916,2
479568,-5.976072,-8.678761,-1.233499,2.710724,-17.320114,-80.157804,2
479578,-5.747557,-8.684742,-1.201196,4.828377,-16.672569,-85.066900,2
479588,-5.533398,-8.511265,-1.150947,6.919783,-15.998768,-89.503508,2
479598,-5.233101,-8.305481,-1.080359,8.092365,-15.132462,-92.618713,2
479608,-4.936390,-8.292320,-1.037288,8.486145,-14.082386,-94.097567,2
479618,-4.644466,-8.286339,-1.006181,9.308704,-12.927300,-94.587650,2
479628,-4.414755,-8.215752,-0.941575,10.332531,-11.772213,-94.342594,2
479639,-4.177866,-8.181057,-0.861416,10.236275,-10.617131,-93.493805,2
479649,-3.979261,-8.280357,-0.830309,9.439964,-9.593304,-92.146177,2
479659,-3.840478,-8.327019,-0.802791,9.413715,-8.560726,-90.343542,2
479669,-3.733997,-8.189430,-0.752542,10.017506,-7.860676,-87.788363,2
479679,-3.625124,-8.097305,-0.705882,10.000008,-7.283134,-84.043093,2
479689,-3.535393,-8.191822,-0.634098,8.993683,-6.959364,-79.221468,2
479699,-3.443269,-8.349751,-0.614955,7.891102,-7.046867,-74.146152,2
479709,-3.334396,-8.446659,-0.608973,7.252306,-7.283134,-69.280734,2
479718,-3.175273,-8.525623,-0.680758,6.893528,-7.405643,-64.555449,2
479728,-3.055633,-8.785240,-0.698704,6.744766,-7.221880,-60.241380,2
479738,-2.921635,-8.980255,-0.754935,7.339811,-6.591837,-56.469851,2
479748,-2.813957,-9.010166,-0.774077,8.792419,-5.585512,-52.995834,2
479757,-2.727816,-8.956329,-0.758524,10.402535,-4.176659,-49.224319,2
479767,-2.660816,-8.888134,-0.764506,11.400108,-2.540289,-45.277772,2
479777,-2.553140,-8.797207,-0.714257,11.548871,-1.008928,-41.436248,2
479787,-2.531604,-8.719440,-0.695115,10.901321,0.408676,-37.568467,2
479797,-2.520837,-8.671585,-0.647258,10.901321,0.408676,-37.568467,2
479807,-2.518444,-8.720638,-0.625723,7.821095,2.771348,-29.719148,2
479817,-2.499301,-8.827118,-0.599402,6.359739,3.690165,-25.588853,2
479827,-2.484944,-8.866600,-0.553938,5.230907,4.355213,-21.642311,2
479837,-2.470588,-8.930008,-0.556331,5.230907,4.355213,-21.642311,2
479847,-2.465802,-8.986240,-0.535992,3.795801,5.414040,-14.554299,2
479857,-2.472980,-9.103489,-0.535992,3.542032,5.842819,-11.771592,2
479867,-2.469391,-9.168095,-0.530010,3.568287,6.131590,-9.592682,2
479877,-2.483748,-9.165703,-0.500100,3.568287,6.131590,-9.592682,2
479886,-2.512463,-9.154934,-0.490528,3.638290,6.157845,-6.398699,2
479896,-2.544765,-9.193218,-0.474975,3.533285,6.157845,-6.398699,2
479906,-2.579460,-9.223129,-0.474975,3.279514,5.939077,-5.024847,2
479916,-2.624926,-9.243469,-0.461814,2.973243,5.597803,-3.738504,2
479925,-2.651246,-9.309269,-0.470189,2.596965,5.116518,-2.583418,2
479935,-2.651246,-9.309269,-0.449850,2.159433,4.617731,-1.454587,2
479945,-2.688334,-9.385841,-0.436690,1.853161,4.005188,-0.562022,2
479955,-2.688334,-9.385841,-0.436690,1.748153,3.401394,0.006770,2
479964,-2.667995,-9.395412,-0.412762,1.748153,2.867604,0.435551,2
479974,-2.653639,-9.452839,-0.412762,1.686898,2.351317,0.785576,2
479984,-2.648852,-9.431305,-0.434297,1.949417,1.957539,1.021844,2
479994,-2.683548,-9.351147,-0.418744,2.308194,1.633765,1.363118,2
480004,-2.697906,-9.315254,-0.423529,2.255691,1.257488,1.888157,2
480014,-2.712262,-9.329609,-0.430708,1.966919,0.863709,2.325688,2
480024,-2.730209,-9.322430,-0.415154,1.651896,0.452429,2.631961,2
480034,-2.731405,-9.324821,-0.400797,1.223114,0.049900,2.885730,2
480044,-2.708673,-9.330807,-0.391226,0.680575,-0.370131,2.929483,2
480054,-2.705084,-9.347557,-0.387637,0.094282,-0.685154,2.745720,2
482505,-2.835493,-7.483549,-0.279960,-14.773057,0.548686,105.434477,2
482515,-3.151345,-7.368692,-0.498903,-18.614578,2.202557,115.217650,2
482526,-3.639482,-7.325623,-0.660419,-21.467292,4.206451,124.020839,2
482536,-4.140776,-7.391424,-0.742971,-23.864968,6.166595,131.362605,2
482547,-4.656429,-7.740778,-0.794416,-26.551406,7.881720,136.525452,2
482557,-5.106279,-9.048454,-0.806380,-28.590309,9.264320,138.441896,2
482568,-6.087337,-9.418144,-0.833898,-28.879082,9.693104,135.282898,2
482578,-6.719042,-9.615551,-0.905683,-27.041452,9.535595,126.987338,2
482589,-7.226320,-9.804585,-1.009770,-24.311249,8.389259,115.156400,2
482599,-7.594814,-10.011562,-1.033699,-17.441994,4.818995,85.771790,2
482610,-7.871185,-9.939777,-1.148554,-13.320446,2.885106,69.600587,2
482620,-7.999201,-9.655033,-1.200000,-9.032635,0.986218,53.919463,2
482630,-8.015949,-9.385841,-1.235892,-5.733643,-0.536393,39.367142,2
482640,-7.968094,-9.125023,-1.302891,-3.239711,-1.656476,26.127427,2
482651,-7.928612,-8.868992,-1.363908,-0.903291,-2.321524,14.480328,2
482661,-7.898703,-8.687138,-1.357926,1.083105,-2.514038,4.373339,2
482672,-7.800596,-8.676369,-1.294516,2.351948,-2.575293,-5.033596,2
482682,-7.615154,-8.690727,-1.186839,3.594538,-2.680300,-14.405533,2
482693,-7.543367,-8.691925,-1.009770,4.924635,-3.065327,-23.917472,2
482703,-7.590029,-8.732601,-0.789631,5.834702,-4.526684,-33.683167,2
482713,-7.545763,-8.760117,-0.653240,6.342239,-6.994364,-43.632674,2
482723,-7.384247,-8.620136,-0.588634,6.954782,-10.144596,-53.564639,2
482733,-7.099501,-8.404785,-0.585045,7.234804,-13.347329,-62.709060,2
482743,-6.742970,-8.340176,-0.575474,6.333488,-16.016273,-70.742126,2
482753,-6.361315,-8.403587,-0.658026,5.020893,-17.862648,-77.698884,2
482763,-5.979660,-8.551941,-0.746560,4.425850,-18.562707,-83.351774,2
482773,-5.635094,-8.565102,-0.866201,4.933386,-18.195183,-87.893400,2
482783,-5.228315,-8.490925,-0.909272,5.790949,-16.847572,-91.559906,2
482793,-4.899302,-8.413158,-0.943968,6.027218,-14.572423,-94.220095,2
482802,-4.589430,-8.244465,-0.957129,5.948460,-11.737213,-96.259003,2
482812,-4.353739,-8.228912,-0.887737,5.405920,-8.613232,-97.335329,2
482822,-4.243668,-8.304287,-0.818345,4.373343,-5.576761,-97.755346,2
482832,-4.173080,-8.224125,-0.770488,3.839556,-2.846562,-97.265320,2
482841,-4.015154,-8.179859,-0.735792,3.760799,-0.536393,-94.946384,2
482851,-3.830907,-8.207375,-0.702293,3.620790,1.143729,-91.428623,2
482861,-3.645463,-8.146358,-0.678365,3.550785,2.325066,-87.412081,2
482871,-3.455235,-8.081753,-0.681954,3.454529,3.138875,-82.643003,2
482880,-3.311665,-8.076969,-0.698704,3.148255,3.742669,-77.208862,2
482890,-3.221933,-8.160717,-0.661615,2.526960,4.171450,-71.293397,2
482900,-3.121434,-8.313858,-0.644865,1.476883,4.346462,-65.115480,2
482910,-3.059221,-8.417946,-0.642473,0.663074,4.267708,-59.112549,2
482920,-3.023330,-8.437088,-0.668793,0.129285,4.171450,-53.030839,2
482930,-3.004187,-8.476570,-0.691525,-0.369501,3.961434,-46.756639,2
482940,-2.988633,-8.639278,-0.738185,-1.244565,3.663914,-40.491180,2
482950,-2.944366,-8.746956,-0.782452,-1.769604,3.515152,-34.987016,2
482960,-2.909670,-8.762512,-0.819541,-1.892113,3.383893,-30.261681,2
482969,-2.900099,-8.846260,-0.821934,-2.399649,3.427646,-26.026382,2
482979,-2.873778,-8.973080,-0.823130,-3.029696,3.541404,-22.263610,2
482989,-2.868993,-9.145359,-0.821934,-3.029696,3.541404,-22.263610,2
482999,-2.865403,-9.174076,-0.823130,-3.152204,3.655163,-16.523179,2
483008,-2.849850,-9.141773,-0.802791,-2.443403,3.681415,-16.523179,2
483018,-2.819940,-9.119041,-0.805184,-1.498334,3.602658,-14.396782,2
483028,-2.835493,-9.139381,-0.799202,-0.649522,3.375142,-12.497895,2
483038,-2.835493,-9.139381,-0.782452,0.330550,3.156376,-10.651509,2
483047,-2.823529,-9.178860,-0.752542,1.371875,2.955112,-8.901382,2
483057,-2.827118,-9.178860,-0.752542,2.448204,2.657589,-7.247509,2
483067,-2.830707,-9.226719,-0.736989,3.542032,2.377569,-5.646143,2
483077,-2.831903,-9.247059,-0.687936,4.627113,2.132551,-4.289791,2
483087,-2.794815,-9.154934,-0.647258,5.607185,1.896285,-3.274720,2
483097,-2.779262,-9.138184,-0.628116,6.053467,1.966290,-2.364653,2
483107,-2.788834,-9.144165,-0.598205,6.228481,2.150052,-1.638350,2
483117,-2.833099,-9.083149,-0.580259,6.175978,2.263811,-1.060808,2
483127,-2.866599,-9.101093,-0.533599,5.799700,2.412572,-0.325754,2
483137,-2.904885,-9.221931,-0.513260,5.160902,2.482577,0.234286,2
483147,-2.938385,-9.259022,-0.471386,5.012140,2.368818,0.479304,2
483157,-3.010169,-9.303288,-0.430708,4.968390,2.220058,0.601813,2
483167,-3.024526,-9.334396,-0.387637,4.802126,1.773776,0.733073,2
483176,-3.032901,-9.304485,-0.368494,4.697119,1.292490,0.803078,2
483186,-3.055633,-9.300896,-0.369691,4.705868,0.863709,1.048096,2
483196,-3.054437,-9.352341,-0.364905,4.749622,0.496182,1.240610,2
483206,-3.055633,-9.342770,-0.370887,4.705868,0.189910,1.284363,2
483215,-3.062812,-9.351147,-0.374477,4.347094,-0.273874,0.916836,2
483229,-3.053240,-9.292519,-0.409172,4.347094,-0.273874,0.916836,2
483239,-3.036489,-9.237484,-0.409172,4.137077,-0.326378,0.435551,2
483249,-3.043669,-9.256630,-0.393619,3.918310,-0.352630,-0.194495,2
485691,-3.566500,-7.049250,-0.503689,-11.019032,-0.492640,107.149565,2
485701,-4.011564,-7.241873,-0.617348,-13.635472,-0.361381,118.752956,2
485711,-4.465004,-7.472780,-0.763310,-16.706933,-0.195118,129.909968,2
485720,-4.838285,-7.992022,-0.847059,-18.868347,0.032398,138.783133,2
485730,-5.200796,-8.973080,-0.909272,-20.399721,0.443678,143.981018,2
485740,-5.547756,-9.894314,-1.054038,-22.053583,0.933714,143.464718,2
485750,-5.547756,-9.894314,-1.054038,-21.519792,1.441251,135.755432,2
485759,-5.918642,-10.398006,-1.164107,-18.177041,1.905035,121.693146,2
485769,-6.321833,-10.494912,-1.164107,-14.116757,2.360067,103.640592,2
485779,-6.762112,-10.407578,-1.214356,-10.450238,2.771348,83.872900,2
485789,-7.146160,-10.167099,-1.216750,-7.124996,2.920109,64.017701,2
485798,-7.417744,-9.745960,-1.239481,-3.896008,2.858853,45.833864,2
485808,-7.587637,-9.347557,-1.233499,-0.807033,2.622587,30.353973,2
485819,-7.600796,-9.028114,-1.239481,1.826909,2.333817,17.473045,2
485829,-7.538582,-8.842670,-1.215553,3.717045,2.150052,6.823517,2
485839,-7.488333,-8.730206,-1.205982,4.819628,2.036294,-2.618422,2
485849,-7.418941,-8.610565,-1.121037,5.554682,1.738773,-11.684086,2
485860,-7.264605,-8.691925,-1.092323,5.755947,1.248737,-20.189698,2
485870,-7.098303,-8.781654,-1.033699,6.149725,0.697447,-28.747826,2
485880,-6.813559,-8.736191,-0.976271,6.937283,0.216162,-37.454712,2
485890,-6.681953,-8.659618,-0.936790,7.462318,-0.343879,-46.074080,2
485901,-6.473778,-8.595013,-0.911665,7.751091,-0.982676,-54.325943,2
485911,-6.233299,-8.591423,-0.897308,7.943604,-1.577719,-61.580234,2
485921,-5.972483,-8.559120,-0.879362,8.276127,-2.181513,-67.565613,2
485931,-5.724823,-8.500496,-0.850648,8.967430,-3.100330,-77.042575,2
